onset	duration	trial_type	rt	resp
0.0004054000019095838	0.612992900016252	fixation_1	999	999
0.6135163000435568	3.005562899983488	face	1.0365462999907322	2
3.6191336000338197	0.612992900016252	fixation_2	999	999
4.160782000049949	1.0157048999681138	feedback win	999	999
5.176491100050043	5.316401999967638	ITI	999	999
10.501872499997262	0.6029841000563465	fixation_1	999	999
11.104983500030357	3.0048878000234254	face	1.047369699983392	3
14.109925800003111	0.6029841000563465	fixation_2	999	999
14.652258500049356	1.015499799977988	feedback loss	999	999
15.667762600001879	1.11738960002549	ITI	999	999
16.790461500000674	0.592591300024651	fixation_1	999	999
17.383172900008503	3.0060807000263594	face	1.0335377000155859	3
20.38931220001541	0.592591300024651	fixation_2	999	999
20.930272900033742	1.015730299986899	feedback win	999	999
21.946007600054145	1.1180771999643184	ITI	999	999
23.069489000015892	0.6084439000114799	fixation_1	999	999
23.678054600022733	3.0052668999996968	face	0.7831000000005588	2
26.683376100030728	0.6084439000114799	fixation_2	999	999
27.22501850000117	1.0158539999974892	feedback win	999	999
28.240877000032924	3.2169005000032485	ITI	999	999
31.46334990003379	0.6076155999908224	fixation_1	999	999
32.07109250000212	3.006491100008134	face	1.032925500010606	2
35.077640200033784	0.6076155999908224	fixation_2	999	999
35.6178990000044	1.0160777000128292	feedback loss	999	999
36.633981200051494	5.317466099979356	ITI	999	999
41.95727000001352	0.5885024000308476	fixation_1	999	999
42.545897000003606	3.0047732000239193	face	0.782359600008931	3
45.5507259000442	0.5885024000308476	fixation_2	999	999
46.092845700040925	1.0157662999699824	feedback loss	999	999
47.10861650004517	3.2160078999586403	ITI	999	999
50.33011989999795	0.5921415000339039	fixation_1	999	999
50.92238590004854	3.005351100000553	face	0.7828277999651618	2
53.92779110005358	0.5921415000339039	fixation_2	999	999
54.470126100000925	1.0150892000528984	feedback win	999	999
55.48521970002912	3.217705000017304	ITI	999	999
58.70852380001452	0.6069915000116453	fixation_1	999	999
59.315640400047414	3.005668199970387	face	1.0468077999539673	2
62.32136460003676	0.6069915000116453	fixation_2	999	999
62.86256630002754	1.0160385000053793	feedback loss	999	999
63.878609300008975	1.1176826000446454	ITI	999	999
65.00186950003263	0.6084081999724731	fixation_1	999	999
65.6104050000431	3.0048500999691896	face	0.7826397999888286	2
68.61531010002363	0.6084081999724731	fixation_2	999	999
69.15747140004532	1.0155449999729171	feedback win	999	999
70.17302080005175	1.1180510999984108	ITI	999	999
71.29670740000438	0.6081892999936827	fixation_1	999	999
71.90504000004148	3.004693499999121	face	0.7831923000048846	2
74.90978770004585	0.6081892999936827	fixation_2	999	999
75.45218260004185	1.0156607999815606	feedback win	999	999
76.46784779999871	1.1190994000062346	ITI	999	999
77.59289369999897	0.6069105000351556	fixation_1	999	999
78.1999313000124	3.004873200028669	face	1.0338516000192612	2
81.2048590000486	0.6069105000351556	fixation_2	999	999
81.74697510001715	1.015618600009475	feedback loss	999	999
82.76259820000269	3.2164541000383906	ITI	999	999
85.98491120000836	0.6078775000059977	fixation_1	999	999
86.59291480004322	3.0058487000060268	face	0.7828525999793783	2
89.59881520003546	0.6078775000059977	fixation_2	999	999
90.13991520000855	1.0157308999914676	feedback loss	999	999
91.15564910002286	1.1183618999784812	ITI	999	999
92.27976600005059	0.6079358999850228	fixation_1	999	999
92.88782770000398	3.005521100014448	face	0.7827674000291154	3
95.89340350002749	0.6079358999850228	fixation_2	999	999
96.43487370002549	1.0156388999894261	feedback win	999	999
97.45051790005527	5.317310499958694	ITI	999	999
102.77411410002969	0.6049470999860205	fixation_1	999	999
103.37918720004382	3.0049205999821424	face	0.7833246999653056	2
106.3841615000274	0.6049470999860205	fixation_2	999	999
106.92616360000102	1.0157419000170194	feedback win	999	999
107.94190990005154	1.1182246999815106	ITI	999	999
109.06632260000333	0.6076709000044502	fixation_1	999	999
109.67412190005416	3.005242499988526	face	0.7826674999669194	2
112.67941989999963	0.6076709000044502	fixation_2	999	999
113.22103180002887	1.0158413000172004	feedback win	999	999
114.23687770002289	5.317212000023574	ITI	999	999
119.56034409999847	0.5882759000523947	fixation_1	999	999
120.14874780003447	3.0044782999902964	face	0.5340693999896757	2
123.15328110003611	0.5882759000523947	fixation_2	999	999
123.69605520000914	1.0159073999966495	feedback win	999	999
124.71196670003701	3.217060399998445	ITI	999	999
127.93499610002618	0.6067125999834388	fixation_1	999	999
128.54198680003174	3.0060506999725476	face	1.0318256000173278	2
131.5480926000164	0.6067125999834388	fixation_2	999	999
132.0888200000045	1.0158842999953777	feedback win	999	999
133.10470850003185	3.216840000008233	ITI	999	999
136.32766740000807	0.590434700017795	fixation_1	999	999
136.9182456000126	3.0043314000358805	face	0.7831144999945536	2
139.9226314999978	0.590434700017795	fixation_2	999	999
140.4651436000131	1.015956900024321	feedback win	999	999
141.4811037000036	3.2172375000081956	ITI	999	999
144.7043845000444	0.606888499984052	fixation_1	999	999
145.3114268000354	3.005807699984871	face	0.7829858000040986	2
148.31729180004913	0.606888499984052	fixation_2	999	999
148.85856810002588	1.0154398999875411	feedback win	999	999
149.87401250004768	11.617929900006857	ITI	999	999
161.4979905000073	0.5993642000248656	fixation_1	999	999
162.09747920004884	3.0038524999981746	face	1.0332792999688536	2
165.10138750000624	0.5993642000248656	fixation_2	999	999
165.64451870002085	1.0157251000055112	feedback loss	999	999
166.66024840000318	5.317446100001689	ITI	999	999
171.98445050005103	0.6044023999711499	fixation_1	999	999
172.58897630003048	3.0053371000103652	face	0.7835873999865726	2
175.59436960000312	0.6044023999711499	fixation_2	999	999
176.13607649999904	1.0157347000204027	feedback win	999	999
177.15181540005142	5.3159279999672435	ITI	999	999
182.47386280004866	0.6065971999778412	fixation_1	999	999
183.08058300003177	3.004773100023158	face	0.7825889000087045	2
186.0854110000073	0.6065971999778412	fixation_2	999	999
186.62734520004597	1.0156868000049144	feedback loss	999	999
187.6430366000277	3.2164518000208773	ITI	999	999
190.86576990003232	0.5908824999933131	fixation_1	999	999
191.45677500002785	3.005998799984809	face	1.0328562000067905	3
194.46282870002324	0.5908824999933131	fixation_2	999	999
195.00395090004895	1.0155811999575235	feedback loss	999	999
196.01953690004302	1.1177318999543786	ITI	999	999
197.14346780005144	0.6078206999809481	fixation_1	999	999
197.7514103000285	3.0048348999698646	face	1.0333880999824032	3
200.75630170002114	0.6078206999809481	fixation_2	999	999
201.29848680004943	1.0158439999795519	feedback loss	999	999
202.31433560000733	1.1182110999943689	ITI	999	999
203.44038939999882	0.6225935000111349	fixation_1	999	999
204.06310350005515	3.005660499969963	face	0.7833079999545589	3
207.06881570001133	0.6225935000111349	fixation_2	999	999
207.60992890002672	1.0160054999869317	feedback win	999	999
208.62593880004715	5.317522299999837	ITI	999	999
213.95006930001546	0.5875690000248142	fixation_1	999	999
214.53776590002235	3.0046223999815993	face	0.7830821999814361	2
217.5424428000115	0.5875690000248142	fixation_2	999	999
218.08473850000883	1.0158408000133932	feedback loss	999	999
219.10058389999904	5.3166732000536285	ITI	999	999
224.42393440002343	0.605426800029818	fixation_1	999	999
225.02954770001816	3.0061982999905013	face	0.7829255000106059	2
228.03580240003066	0.605426800029818	fixation_2	999	999
228.57625350001035	1.01570550003089	feedback win	999	999
229.59196340001654	3.216943999985233	ITI	999	999
232.81519640004262	0.6070347999921069	fixation_1	999	999
233.42236930003855	3.004277399973944	face	0.783072899968829	2
236.42669980000937	0.6070347999921069	fixation_2	999	999
236.96950740000466	1.0159932000096887	feedback loss	999	999
237.98551900003804	1.1175119999679737	ITI	999	999
239.10941860004095	0.6076983999810182	fixation_1	999	999
239.7172564000357	3.006032100005541	face	0.7838453999720514	2
242.72334330005106	0.6076983999810182	fixation_2	999	999
243.26403830002528	1.0159670999855734	feedback win	999	999
244.28001040004892	3.2162212999537587	ITI	999	999
247.50262620003195	0.6072751000174321	fixation_1	999	999
248.11002770002233	3.0050835000001825	face	1.5494624000275508	2
251.11516730004223	0.6072751000174321	fixation_2	999	999
251.65732030000072	1.0154967000125907	feedback loss	999	999
252.6728217000491	1.118323699978646	ITI	999	999
253.79768850002438	0.5905414000153542	fixation_1	999	999
254.38839070004178	3.0048432999756187	face	0.7820605000015348	2
257.3932894000318	0.5905414000153542	fixation_2	999	999
257.9353854000219	1.0002118999836966	feedback loss	999	999
258.93560320005054	1.1166389999561943	ITI	999	999
260.0588419000269	0.590852299996186	fixation_1	999	999
260.6498272000463	3.005398499954026	face	0.7828494999557734	2
263.65528090001317	0.590852299996186	fixation_2	999	999
264.196924900054	1.0157023999490775	feedback loss	999	999
265.2126322000404	1.1179317999631166	ITI	999	999
266.3373005000176	0.5905653000227176	fixation_1	999	999
266.9279822000535	3.005742499954067	face	1.0327139999717474	2
269.9337798000197	0.5905653000227176	fixation_2	999	999
270.47491770004854	1.015857899968978	feedback win	999	999
271.4907801000518	5.3176069999462925	ITI	999	999
276.8153216000064	0.6040006999974139	fixation_1	999	999
277.4194437000551	3.00488519994542	face	0.7834538999595679	2
280.4243857000256	0.6040006999974139	fixation_2	999	999
280.96701750002103	1.0151463000220247	feedback loss	999	999
281.9821683000191	1.1185364000266418	ITI	999	999
283.10766860004514	0.6064641999546438	fixation_1	999	999
283.714255400002	3.0060002999962308	face	1.032721500028856	2
286.7203089000541	0.6064641999546438	fixation_2	999	999
287.2611822000472	1.0158858000067994	feedback loss	999	999
288.27707250003004	3.2169559000176378	ITI	999	999
291.5007076000329	0.6064621999976225	fixation_1	999	999
292.107290200016	3.0050469000125304	face	0.7828663000254892	2
295.11239270004444	0.6064621999976225	fixation_2	999	999
295.65442950004945	1.0156777999945916	feedback win	999	999
296.6701116000186	5.317259699979331	ITI	999	999
301.99800900003174	0.600577000004705	fixation_1	999	999
302.59871820005355	3.0055217999615707	face	0.7828524999786168	2
305.60429450002266	0.600577000004705	fixation_2	999	999
306.1458397000097	1.0156128000235185	feedback loss	999	999
307.16145700000925	5.317037700035144	ITI	999	999
312.48558050004067	0.6209671999677084	fixation_1	999	999
313.1066744000418	3.0048077999963425	face	0.7833799999789335	2
316.1115364000434	0.6209671999677084	fixation_2	999	999
316.65377050003735	1.0158092000056058	feedback win	999	999
317.6695829000091	1.117730300000403	ITI	999	999
318.7941032000235	0.6071678000153042	fixation_1	999	999
319.4013968000072	3.0053888999973424	face	1.0339621000457555	2
322.4068414000212	0.6071678000153042	fixation_2	999	999
322.94860420003533	1.0157544999965467	feedback loss	999	999
323.9643633000087	1.1177315000095405	ITI	999	999
325.0891644000076	0.5903905000304803	fixation_1	999	999
325.67968350002775	3.0050857000169344	face	0.7827584000187926	2
328.68482390005374	0.5903905000304803	fixation_2	999	999
329.226637600048	1.0158312999992631	feedback loss	999	999
330.242475200037	5.317281599971466	ITI	999	999
335.5669309000368	0.6039306999882683	fixation_1	999	999
336.1709910000209	3.0057647000066936	face	0.7827332000015303	2
339.17680980003206	0.6039306999882683	fixation_2	999	999
339.71817240002565	1.0156244999961928	feedback loss	999	999
340.73380020004697	1.1182839999673888	ITI	999	999
341.8595302000176	0.6063232999877073	fixation_1	999	999
342.4659731000429	3.0048290999839082	face	0.7830006000003777	2
345.4708574000397	0.6063232999877073	fixation_2	999	999
346.01296150003327	1.015718700014986	feedback loss	999	999
347.0286847000243	3.2165090999915265	ITI	999	999
350.2526669000508	0.6064039999619126	fixation_1	999	999
350.85921760002384	3.0047263000160456	face	1.0471900000120513	3
353.86399860004894	0.6064039999619126	fixation_2	999	999
354.4061061000102	1.0156926999916323	feedback win	999	999
355.4218034000369	7.416358899965417	ITI	999	999
362.84549600002356	0.603175199998077	fixation_1	999	999
363.448801200022	3.0044088999857195	face	0.7834425999899395	3
366.4532619000529	0.603175199998077	fixation_2	999	999
366.9959238000447	1.015500699984841	feedback loss	999	999
368.0114290000056	1.1176928000058979	ITI	999	999
369.1362023000256	0.5906930000055581	fixation_1	999	999
369.7270215000026	3.005980800022371	face	1.0334039000445046	3
372.73305800004164	0.5906930000055581	fixation_2	999	999
373.2738090000348	1.0009116000146605	feedback win	999	999
374.2747259000316	1.1151990999933332	ITI	999	999
375.39693490002537	0.5916144999791868	fixation_1	999	999
375.9887870000093	3.004896500031464	face	0.7824117999989539	3
378.993735200027	0.5916144999791868	fixation_2	999	999
379.53524980001384	1.016046600008849	feedback loss	999	999
380.551300799998	1.1172088000457734	ITI	999	999
381.67568150005536	0.5908603999996558	fixation_1	999	999
382.26666760002263	3.004948100016918	face	0.7821475000237115	2
385.27167110005394	0.5908603999996558	fixation_2	999	999
385.81348560005426	1.0157089999993332	feedback loss	999	999
386.82919940003194	3.2167054999736138	ITI	999	999
390.0531657000538	0.6063034999533556	fixation_1	999	999
390.6595992000075	3.005934300017543	face	0.78283250000095	2
393.6655875000288	0.6063034999533556	fixation_2	999	999
394.206555700046	1.0158812999725342	feedback loss	999	999
395.22244160005357	5.317451799986884	ITI	999	999
400.5473244000459	0.6202102999668568	fixation_1	999	999
401.1676832000376	3.005701499991119	face	1.032683699973859	2
404.1734385000309	0.6202102999668568	fixation_2	999	999
404.7146914000041	1.0158047000295483	feedback loss	999	999
405.73050070001045	5.315999799990095	ITI	999	999
411.05423380003776	0.6047721999930218	fixation_1	999	999
411.6591361000319	3.0053446000092663	face	1.0328249000012875	2
414.66453660000116	0.6047721999930218	fixation_2	999	999
415.20618020003894	1.0158310999977402	feedback loss	999	999
416.222015700012	5.316756599990185	ITI	999	999
421.546247899998	0.6042228000005707	fixation_1	999	999
422.15062700002454	3.005248199973721	face	0.7826282000169158	3
425.15593190002255	0.6042228000005707	fixation_2	999	999
425.6975567000336	1.015755900007207	feedback win	999	999
426.7133170000161	3.2167568000149913	ITI	999	999
429.9375818000408	0.6057159999618307	fixation_1	999	999
430.54342350002844	3.0046898999717087	face	0.7831448999932036	3
433.54816950001987	0.6057159999618307	fixation_2	999	999
434.09062940004515	1.015581999963615	feedback win	999	999
435.10621560004074	1.117784300004132	ITI	999	999
436.23108910000883	0.6070592000032775	fixation_1	999	999
436.8382759000524	3.005058499984443	face	0.7833528999472037	3
439.8433909000014	0.6070592000032775	fixation_2	999	999
440.38601200003177	1.0150069000083022	feedback loss	999	999
441.40102340001613	3.216904200031422	ITI	999	999
444.6256673000171	0.605591400002595	fixation_1	999	999
445.2313828000333	3.0052553999703377	face	0.783378099964466	3
448.23669310001424	0.605591400002595	fixation_2	999	999
448.77845750004053	1.015787599957548	feedback win	999	999
449.7942494000308	3.2165975000243634	ITI	999	999
453.0182462000521	0.6061012999853119	fixation_1	999	999
453.62446970003657	3.0051739999908023	face	1.033208500011824	3
456.62969580001663	0.6061012999853119	fixation_2	999	999
457.1714822000358	1.0158452999894507	feedback win	999	999
458.18733200000133	1.117437900044024	ITI	999	999
459.31259690003935	0.606635499978438	fixation_1	999	999
459.9193540000124	3.0054801999940537	face	1.047083500016015	3
462.9248900000239	0.606635499978438	fixation_2	999	999
463.46635610004887	1.0156598999747075	feedback win	999	999
464.48202049999963	1.117306300031487	ITI	999	999
465.6068772000144	0.6071812000009231	fixation_1	999	999
466.2141794000054	3.004931100003887	face	0.7822665999992751	3
469.21916640002746	0.6071812000009231	fixation_2	999	999
469.76139780000085	1.0156256000045687	feedback win	999	999
470.77702770003816	1.1186938000028022	ITI	999	999
471.90320570004405	0.6057494999840856	fixation_1	999	999
472.5090826000087	3.0040231000166386	face	0.7823858000338078	3
475.51316180004505	0.6057494999840856	fixation_2	999	999
476.0566181000322	1.0152717999881133	feedback win	999	999
477.07189469999867	5.317336400039494	ITI	999	999
482.3971636000206	0.6041058999835514	fixation_1	999	999
483.00142179999966	3.0056314000394195	face	0.781773200025782	3
486.00710860005347	0.6041058999835514	fixation_2	999	999
486.5473477000487	1.015890999988187	feedback win	999	999
487.5632438000175	5.317031999991741	ITI	999	999
492.88819130003685	0.6034870999865234	fixation_1	999	999
493.4918202000554	3.005518199992366	face	1.0334609999554232	2
496.4973938000039	0.6034870999865234	fixation_2	999	999
497.0386385000311	1.0159048999776132	feedback loss	999	999
498.0545478000422	5.31649140000809	ITI	999	999
