onset	duration	trial_type	rt	resp
0.0003994000144302845	0.6065726999659091	fixation_1	999	999
0.6070989000145346	3.005416799976956	face	1.0351976999663748	2
3.6125710000051185	0.6065726999659091	fixation_2	999	999
4.1538575000013225	1.0157921999925748	feedback loss	999	999
5.169653999968432	5.316874700016342	ITI	999	999
10.49539429997094	0.619357299990952	fixation_1	999	999
11.114874799968675	3.006058800034225	face	0.7825327999889851	2
14.12099029996898	0.619357299990952	fixation_2	999	999
14.661957199976314	1.0156957000144757	feedback win	999	999
15.677656999963801	5.316841000050772	ITI	999	999
20.999776599986944	0.606358100019861	fixation_1	999	999
21.60626929998398	3.0049096000147983	face	0.783380999986548	2
24.61123390001012	0.606358100019861	fixation_2	999	999
25.153143899980932	1.01589119998971	feedback loss	999	999
26.169039600004908	5.317415700003039	ITI	999	999
31.491907099960372	0.6055887000402436	fixation_1	999	999
32.097619500011206	3.0045981999719515	face	0.7820608000038192	2
35.10227259999374	0.6055887000402436	fixation_2	999	999
35.644670800014865	1.0157411999534816	feedback loss	999	999
36.66041650000261	1.117037599964533	ITI	999	999
37.782830699987244	0.5927980000269599	fixation_1	999	999
38.37577049998799	3.004632900003344	face	0.7830468000029214	2
41.38045960001182	0.5927980000269599	fixation_2	999	999
41.922978699964006	1.015757700020913	feedback loss	999	999
42.9387410999625	1.118521000025794	ITI	999	999
44.06265539996093	0.591303399996832	fixation_1	999	999
44.654088100010995	3.0051572999800555	face	1.299528699950315	2
47.659300400002394	0.591303399996832	fixation_2	999	999
48.200961800001096	1.0002578999847174	feedback win	999	999
49.20122559997253	1.1171081000356935	ITI	999	999
50.3239220000105	0.6079038999741897	fixation_1	999	999
50.9319528999622	3.0049795000231825	face	1.29955700004939	2
53.936989600013476	0.6079038999741897	fixation_2	999	999
54.479073699971195	1.0157301999861374	feedback win	999	999
55.49480869999388	3.2168642000178806	ITI	999	999
58.71710549999261	0.6080148000037298	fixation_1	999	999
59.325288099993486	3.0056147999712266	face	1.0325887000071816	3
62.33095879998291	0.6080148000037298	fixation_2	999	999
62.87204909999855	1.016049199970439	feedback loss	999	999
63.888103000004776	3.2168592999805696	ITI	999	999
67.1104657999822	0.6076182000106201	fixation_1	999	999
67.71822509996127	3.004574800026603	face	1.0330938000115566	3
70.72285570000531	0.6076182000106201	fixation_2	999	999
71.26537470001495	1.0157288999762386	feedback win	999	999
72.28110809996724	1.1179300000076182	ITI	999	999
73.40484849998029	0.6082391000236385	fixation_1	999	999
74.01321169995936	3.0052063000039198	face	0.7835466000251472	3
77.01847119996091	0.6082391000236385	fixation_2	999	999
77.56009479996283	1.0158063000417314	feedback win	999	999
78.57590569998138	3.2168592999805696	ITI	999	999
81.79843699996127	0.6077032000175677	fixation_1	999	999
82.40627219999442	3.0056582000106573	face	1.032674899965059	2
85.41198789997725	0.6077032000175677	fixation_2	999	999
85.95323270000517	1.0158110999618657	feedback loss	999	999
86.96904809999978	5.317052999977022	ITI	999	999
92.29194439999992	0.6055560999666341	fixation_1	999	999
92.89777869998943	3.0046183000085875	face	0.782195599982515	2
95.90248689998407	0.6055560999666341	fixation_2	999	999
96.4446573999594	1.0157259000116028	feedback loss	999	999
97.4603877000045	5.317011899955105	ITI	999	999
102.78338999999687	0.6054981999914162	fixation_1	999	999
103.38921319996007	3.005972800019663	face	1.0319264000281692	2
106.39524240000173	0.6054981999914162	fixation_2	999	999
106.9360413000104	1.0158119999687187	feedback win	999	999
107.95185800001491	5.3165901999454945	ITI	999	999
113.27402229997097	0.6065444000414573	fixation_1	999	999
113.88072959997226	3.0057731000124477	face	0.782730300037656	2
116.88655659998767	0.6065444000414573	fixation_2	999	999
117.42786990001332	1.015481699956581	feedback win	999	999
118.4433546999935	3.21695189998718	ITI	999	999
121.66603699995903	0.6075033000088297	fixation_1	999	999
122.27391049999278	3.004868099989835	face	1.0319513999857008	2
125.27883550000843	0.6075033000088297	fixation_2	999	999
125.8204909999622	1.0157574000186287	feedback win	999	999
126.83625280001434	1.1175971999764442	ITI	999	999
127.95961479999823	0.6084270999999717	fixation_1	999	999
128.56817139999475	3.005375400010962	face	0.7836962000001222	2
131.57360159995733	0.6084270999999717	fixation_2	999	999
132.11531449999893	1.0158248000079766	feedback win	999	999
133.1311436999822	1.1180180999799632	ITI	999	999
134.25501389999408	0.5912639999878593	fixation_1	999	999
134.84654880000744	3.0045606999774463	face	1.0321200999896973	2
137.85116089996882	0.5912639999878593	fixation_2	999	999
138.39337100001285	1.015923999948427	feedback loss	999	999
139.40929949999554	1.118373800010886	ITI	999	999
140.5335316999699	0.6077194000245072	fixation_1	999	999
141.14137369999662	3.005245800013654	face	0.7830537999980152	2
144.14667509996798	0.6077194000245072	fixation_2	999	999
144.68839630001457	1.0158019999507815	feedback loss	999	999
145.7042031000019	7.4176404000027105	ITI	999	999
153.12803490000078	0.6027490000124089	fixation_1	999	999
153.73090819997014	3.0053918000194244	face	1.04712030000519	3
156.7363534999895	0.6027490000124089	fixation_2	999	999
157.27784399996744	1.0159166000084952	feedback loss	999	999
158.29376490000868	3.2166456999839284	ITI	999	999
161.51665770000545	0.6074679999728687	fixation_1	999	999
162.12440909998259	3.0053378000156954	face	0.7829596999799833	2
165.12980160000734	0.6074679999728687	fixation_2	999	999
165.67153619998135	1.0154169999877922	feedback win	999	999
166.68695760000264	1.117685100005474	ITI	999	999
167.81049939995864	0.6083964999997988	fixation_1	999	999
168.41905689996202	3.0056188000016846	face	0.7834921000176109	2
171.42472959996667	0.6083964999997988	fixation_2	999	999
171.96603949996643	1.015929400047753	feedback loss	999	999
172.98197329998948	5.316561400017235	ITI	999	999
178.3051839999971	0.6051682999823242	fixation_1	999	999
178.91048079996835	3.0040584999951534	face	0.7825396000407636	2
181.914595499984	0.6051682999823242	fixation_2	999	999
182.457325699972	1.0158838999923319	feedback loss	999	999
183.4732137999963	1.118308499979321	ITI	999	999
184.5977111000102	0.6073237999808043	fixation_1	999	999
185.20517859997926	3.004881300032139	face	0.7827793000033125	2
188.21011509996606	0.6073237999808043	fixation_2	999	999
188.75223129999358	1.0156030000071041	feedback win	999	999
189.76783869997598	1.117649000021629	ITI	999	999
190.89197429997148	0.5910430999938399	fixation_1	999	999
191.4831400999683	3.0052164000226185	face	0.7824312000302598	2
194.48841099999845	0.5910430999938399	fixation_2	999	999
195.03037519997451	1.015886800014414	feedback win	999	999
196.04626639996422	5.316224100010004	ITI	999	999
201.36879089998547	0.6058651999919675	fixation_1	999	999
201.97478459996637	3.004904300032649	face	0.7820896999910474	2
204.97974579996662	0.6058651999919675	fixation_2	999	999
205.52169739996316	1.0157034000148997	feedback loss	999	999
206.5374056000146	5.316859899961855	ITI	999	999
211.8606611000141	0.6050958999549039	fixation_1	999	999
212.46604049997404	3.0046882000169717	face	0.7827599000302143	2
215.47078370000236	0.6050958999549039	fixation_2	999	999
216.01291389996186	1.0159288000431843	feedback loss	999	999
217.0288471999811	3.2168528999900445	ITI	999	999
220.2518927999772	0.6072514000115916	fixation_1	999	999
220.85951199999545	3.0052444000029936	face	1.0326154999784194	2
223.8648100999999	0.6072514000115916	fixation_2	999	999
224.40616790001513	1.0158980999840423	feedback loss	999	999
225.42207039997447	1.1172922999830917	ITI	999	999
226.54604669997934	0.607746199995745	fixation_1	999	999
227.1539097999921	3.005195299978368	face	1.032541599997785	3
230.1591619999963	0.607746199995745	fixation_2	999	999
230.70113110000966	1.015467399964109	feedback loss	999	999
231.7166031000088	5.31676829996286	ITI	999	999
237.03999540000223	0.6051912999828346	fixation_1	999	999
237.64533490000758	3.004297699953895	face	1.0336967000039294	2
240.6496894999873	0.6051912999828346	fixation_2	999	999
241.1925857999595	1.0156214000307955	feedback loss	999	999
242.20821159996558	1.1177947000251152	ITI	999	999
243.3323975999956	0.6077479000086896	fixation_1	999	999
243.94026750000194	3.005038400006015	face	1.548910999961663	2
246.94536249997327	0.6077479000086896	fixation_2	999	999
247.4871215999592	1.0159266000264324	feedback win	999	999
248.50305229995865	1.117820700048469	ITI	999	999
249.62716099998215	0.6079344000318088	fixation_1	999	999
250.23523779999232	3.0056323999888264	face	1.0330774000030942	2
253.24092429998564	0.6079344000318088	fixation_2	999	999
253.78188640001463	1.015891399991233	feedback loss	999	999
254.79778899997473	1.1169814000022598	ITI	999	999
255.92117629997665	0.5918760999920778	fixation_1	999	999
256.513185799995	3.00428059999831	face	1.0322285000002012	3
259.5175229999586	0.5918760999920778	fixation_2	999	999
260.06006449996494	1.0157954000169411	feedback win	999	999
261.07586439995794	3.2167167000006884	ITI	999	999
264.2996836999664	0.6063311000471003	fixation_1	999	999
264.9061376999598	3.005437300016638	face	1.0331085000070743	2
267.9116306999931	0.6063311000471003	fixation_2	999	999
268.45329099998344	1.0157706000027247	feedback win	999	999
269.46906649996527	1.1184408999979496	ITI	999	999
270.5944632999599	0.6064790000091307	fixation_1	999	999
271.20108590001473	3.0056623999844305	face	1.0323206999455579	2
274.206805099966	0.6064790000091307	fixation_2	999	999
274.74787909997394	1.0159042000304908	feedback win	999	999
275.7637880999828	3.216707799991127	ITI	999	999
278.9869846999645	0.5904899000306614	fixation_1	999	999
279.5777862999821	3.0060361999785528	face	0.7826058000209741	2
282.58387839997886	0.5904899000306614	fixation_2	999	999
283.1245911999722	1.015680100012105	feedback win	999	999
284.14027579996036	5.317293300002348	ITI	999	999
289.464309700008	0.6210324999992736	fixation_1	999	999
290.08546550001483	3.0058674999745563	face	0.7827590999659151	2
293.09138900000835	0.6210324999992736	fixation_2	999	999
293.6326386000146	1.015745099983178	feedback win	999	999
294.6483880999731	5.316932199988514	ITI	999	999
299.97212569997646	0.6048016999848187	fixation_1	999	999
300.5772846000036	3.0046734999632463	face	0.7825429000076838	2
303.5820076999953	0.6048016999848187	fixation_2	999	999
304.12390750000486	1.0157601999817416	feedback win	999	999
305.13967249996495	1.1176564000197686	ITI	999	999
306.26422279997496	0.6073834000271745	fixation_1	999	999
306.8718778999755	3.0053244000300765	face	0.7828493000124581	2
309.8772566000116	0.6073834000271745	fixation_2	999	999
310.41862730000867	1.0158927000011317	feedback loss	999	999
311.4345246999874	1.1181287000072189	ITI	999	999
312.559729599976	0.6065325000090525	fixation_1	999	999
313.1663860999979	3.005126299976837	face	0.782972399960272	2
316.1715678999899	0.6065325000090525	fixation_2	999	999
316.7135554999695	1.0157752000377513	feedback win	999	999
317.7293507999857	3.216964600025676	ITI	999	999
320.9532066999818	0.6063225999823771	fixation_1	999	999
321.5596555999946	3.0054275000002235	face	1.2994671000051312	2
324.5651375000016	0.6063225999823771	fixation_2	999	999
325.1064783000038	1.0158641999587417	feedback loss	999	999
326.1223472999991	5.316852799966	ITI	999	999
331.4462302000029	0.6044868999742903	fixation_1	999	999
332.05084169999463	3.0041057000053115	face	0.7831056999857537	2
335.055003699963	0.6044868999742903	fixation_2	999	999
335.59797229996184	1.0157309000496753	feedback win	999	999
336.61370749998605	5.316258999984711	ITI	999	999
341.9367636999814	0.6055665999883786	fixation_1	999	999
342.5424572000047	3.006064399960451	face	0.7827928999904543	2
345.54857749998337	0.6055665999883786	fixation_2	999	999
346.0898145000101	1.0153020999860018	feedback win	999	999
347.10512109997217	11.616841200040653	ITI	999	999
358.72889709996525	0.6162522000377066	fixation_1	999	999
359.3452754999744	3.0053850000258535	face	1.548755900003016	2
362.35071709996555	0.6162522000377066	fixation_2	999	999
362.89233760000207	1.0157614999916404	feedback loss	999	999
363.9081036999705	3.216913999989629	ITI	999	999
367.1321345999604	0.605965000053402	fixation_1	999	999
367.7382268999936	3.0050624000141397	face	1.0318888999754563	2
370.74334360001376	0.605965000053402	fixation_2	999	999
371.2853310999926	1.0158947000163607	feedback win	999	999
372.3012303999858	3.2171390000148676	ITI	999	999
375.5259388000122	0.6053047999739647	fixation_1	999	999
376.1313669999945	3.0054880999960005	face	0.7825528999674134	2
379.13691090000793	0.6053047999739647	fixation_2	999	999
379.6784506000113	1.0157208999735303	feedback loss	999	999
380.6941758999601	3.217120200046338	ITI	999	999
383.91884050000226	0.6055758000002243	fixation_1	999	999
384.52458329999354	3.0046662999666296	face	0.783136399986688	2
387.52930449997075	0.6055758000002243	fixation_2	999	999
388.07150019996334	1.0162167000235058	feedback loss	999	999
389.0877210999606	5.316370700020343	ITI	999	999
394.41156259999843	0.620691399963107	fixation_1	999	999
395.03237969998736	3.0052028999780305	face	1.0328730000182986	2
398.03763829998206	0.620691399963107	fixation_2	999	999
398.57985879998887	1.015484799980186	feedback loss	999	999
399.59534669999266	1.1178587999893352	ITI	999	999
400.7202239999897	0.5905146999866702	fixation_1	999	999
401.31088030000683	3.005280199984554	face	0.7836183999897912	2
404.31621439999435	0.5905146999866702	fixation_2	999	999
404.85789290000685	1.0156187999527901	feedback loss	999	999
405.8735158999916	5.3169447999680415	ITI	999	999
411.19811309996294	0.6039820000296459	fixation_1	999	999
411.80222559999675	3.0058221999788657	face	1.7986412000027485	2
414.80810379999457	0.6039820000296459	fixation_2	999	999
415.3493197999778	1.0154047000105493	feedback win	999	999
416.3647289999644	1.117960600007791	ITI	999	999
417.49103599996306	0.6056037000380456	fixation_1	999	999
418.0967653999687	3.0058241999940947	face	1.0332664000452496	2
421.10264379996806	0.6056037000380456	fixation_2	999	999
421.6451587000047	1.0146005999995396	feedback loss	999	999
422.6597637999803	3.216916300007142	ITI	999	999
425.8845569000114	0.5887213999521919	fixation_1	999	999
426.47340379998786	3.0050810999819078	face	1.032623999984935	2
429.4785391999758	0.5887213999521919	fixation_2	999	999
430.0204770999844	1.015653199981898	feedback loss	999	999
431.0361352000036	1.1179614999564365	ITI	999	999
432.1616594999796	0.6064061999786645	fixation_1	999	999
432.7681897999719	3.0051717000314966	face	1.0329229999915697	2
435.7734393000137	0.6064061999786645	fixation_2	999	999
436.3150272999774	1.015975399990566	feedback win	999	999
437.3310074000037	1.1178367999964394	ITI	999	999
438.45632479997585	0.589940200035926	fixation_1	999	999
439.0464338999591	3.005394800042268	face	0.7835097000352107	2
442.0518854999682	0.589940200035926	fixation_2	999	999
442.5933999000117	1.0157490999554284	feedback win	999	999
443.60915340000065	1.1179941999725997	ITI	999	999
444.7342730999808	0.6066237000050023	fixation_1	999	999
445.3412325999816	3.0055007999762893	face	1.0332531000021845	2
448.34678909997456	0.6066237000050023	fixation_2	999	999
448.8883322000038	1.0155878000077792	feedback win	999	999
449.9039244999876	3.2172664999961853	ITI	999	999
453.1287624000106	0.6053568999632262	fixation_1	999	999
453.73423979996005	3.0058361000264995	face	0.7834298000088893	2
456.7401325000101	0.6053568999632262	fixation_2	999	999
457.2812176999869	1.0159441999858245	feedback win	999	999
458.2971663000062	3.217070499958936	ITI	999	999
461.5215329999919	0.60583030001726	fixation_1	999	999
462.12749009998515	3.0054163999739103	face	1.0336749000125565	2
465.1329630999826	0.60583030001726	fixation_2	999	999
465.6745654999977	1.0000239000073634	feedback loss	999	999
466.6745949999895	5.316969399980735	ITI	999	999
471.99917059997097	0.6195827000192367	fixation_1	999	999
472.6188795999624	3.0052436999976635	face	0.7832194000366144	2
475.6241789999767	0.6195827000192367	fixation_2	999	999
476.1657702999655	1.015670399996452	feedback loss	999	999
477.18144519999623	3.21700389997568	ITI	999	999
480.40606119995937	0.588986000046134	fixation_1	999	999
480.99517070001457	3.006004999973811	face	0.7828770999913104	2
484.0012313000043	0.588986000046134	fixation_2	999	999
484.5421982000116	1.015817299950868	feedback loss	999	999
485.5580203999998	1.1183056999580003	ITI	999	999
486.6837499999674	0.6062220000312664	fixation_1	999	999
487.2900965999579	3.005417100037448	face	1.033692900033202	2
490.2955887999851	0.6062220000312664	fixation_2	999	999
490.83698909997474	1.0157366000348702	feedback win	999	999
491.8527301999857	1.1179308000137098	ITI	999	999
492.97826870001154	0.6069324999698438	fixation_1	999	999
493.58563489996595	3.0052845000172965	face	1.0318267000257038	2
496.590975900006	0.6069324999698438	fixation_2	999	999
497.13186979998136	1.0158433000324294	feedback win	999	999
498.1477173999883	5.3173350999713875	ITI	999	999
