onset	duration	trial_type	rt	resp	gender
0.6141034999745898	3.0051787000265904	decision	1.3026878000237048	left	M
4.161187399993651	1.015841000014916	win	n/a	n/a	n/a
5.177032899984624	5.316992799984291	ITI	n/a	n/a	n/a
11.08892409998225	3.0628332000342198	decision-missed	n/a	n/a	M
14.702572299982421	1.0159175000153482	loss	n/a	n/a	n/a
15.718493499967735	1.1176128000370227	ITI	n/a	n/a	n/a
17.433790799987037	3.063210499996785	decision-missed	n/a	n/a	M
21.04742560000159	1.0156105000060052	win	n/a	n/a	n/a
22.06304059998365	1.1176758999936283	ITI	n/a	n/a	n/a
23.795211600023322	3.065343299997039	decision-missed	n/a	n/a	F
27.408978999999817	1.0155846999841742	win	n/a	n/a	n/a
28.42456900002435	3.2165583999594674	ITI	n/a	n/a	n/a
32.25488409999525	3.0664234000141732	decision-missed	n/a	n/a	F
35.868482600024436	1.0157848999951966	loss	n/a	n/a	n/a
36.88427209999645	5.316046699997969	ITI	n/a	n/a	n/a
42.79630859999452	3.065684599976521	decision-missed	n/a	n/a	M
46.40983169997344	1.0156781999976374	loss	n/a	n/a	n/a
47.42551440000534	3.217456799990032	ITI	n/a	n/a	n/a
51.239226899982896	3.0618567999918014	decision-missed	n/a	n/a	M
54.85296390001895	1.0156302999821492	win	n/a	n/a	n/a
55.86859759996878	3.2175671000150032	ITI	n/a	n/a	n/a
59.69881919998443	3.067671300028451	decision-missed	n/a	n/a	F
63.312607800005935	1.0002410999732092	loss	n/a	n/a	n/a
64.3128537000157	1.1170687999692746	ITI	n/a	n/a	n/a
66.04375790001359	3.0664714999729767	decision-missed	n/a	n/a	F
69.65737620001892	1.015736899978947	win	n/a	n/a	n/a
70.6731173999724	1.1178463000105694	ITI	n/a	n/a	n/a
72.40523689996917	3.064199800021015	decision-missed	n/a	n/a	F
76.01894059998449	1.0155597000266425	win	n/a	n/a	n/a
77.03450339997653	1.1186321999994107	ITI	n/a	n/a	n/a
78.7666179999942	3.0671089999959804	decision-missed	n/a	n/a	F
82.38024540001061	1.015682499972172	loss	n/a	n/a	n/a
83.3959325000178	3.216015499958303	ITI	n/a	n/a	n/a
87.22642010002164	3.0644727999460883	decision-missed	n/a	n/a	M
90.83991879998939	1.0158127000322565	loss	n/a	n/a	n/a
91.8557368000038	1.1176644999650307	ITI	n/a	n/a	n/a
93.58773109997855	3.066120600036811	decision-missed	n/a	n/a	M
97.201387899986	1.015810600016266	win	n/a	n/a	n/a
98.21720289997756	5.3168162000365555	ITI	n/a	n/a	n/a
104.14573139999993	3.063391799980309	decision-missed	n/a	n/a	M
107.75945169996703	1.0157175000058487	win	n/a	n/a	n/a
108.77517390000867	1.1172020999947563	ITI	n/a	n/a	n/a
110.50717090000398	3.0650864000199363	decision-missed	n/a	n/a	F
114.12099520000629	1.0154383999761194	win	n/a	n/a	n/a
115.13643800001591	5.316604299994651	ITI	n/a	n/a	n/a
121.04843189998064	3.061829200014472	decision-missed	n/a	n/a	M
124.66193900001235	1.015938800002914	win	n/a	n/a	n/a
125.6778828999959	3.21706280001672	ITI	n/a	n/a	n/a
129.50803590001306	3.0665113999857567	decision-missed	n/a	n/a	F
133.1217597000068	1.0158359999768436	win	n/a	n/a	n/a
134.13760040001944	3.2168926000013016	ITI	n/a	n/a	n/a
137.9514036999899	3.0619570999988355	decision-missed	n/a	n/a	M
141.56496519997017	1.0156738000223413	win	n/a	n/a	n/a
142.5806433999678	3.2166275000199676	ITI	n/a	n/a	n/a
146.41091779997805	3.0625735000357963	decision-missed	n/a	n/a	F
150.02446089999285	1.015880200022366	win	n/a	n/a	n/a
151.0403454999905	11.61672659998294	ITI	n/a	n/a	n/a
163.26369330001762	3.068275499972515	decision-missed	n/a	n/a	M
166.87737349997042	1.0158810000284575	loss	n/a	n/a	n/a
167.89325919997646	5.317018200003076	ITI	n/a	n/a	n/a
173.82176149997395	3.0624980000429787	decision-missed	n/a	n/a	M
177.43550570000662	1.0156884000170976	win	n/a	n/a	n/a
178.4512011000188	5.316965399950277	ITI	n/a	n/a	n/a
184.37982699996792	3.063247100042645	decision-missed	n/a	n/a	M
187.9933941999916	1.0158775000018068	loss	n/a	n/a	n/a
189.00927599996794	3.216672100010328	ITI	n/a	n/a	n/a
192.82277949998388	3.0647009999956936	decision-missed	n/a	n/a	M
196.43662310001673	1.0164280000026338	loss	n/a	n/a	n/a
197.45305559999542	1.117469999997411	ITI	n/a	n/a	n/a
199.18416770000476	3.064832500007469	decision-missed	n/a	n/a	F
202.79781199997524	1.0160022000200115	loss	n/a	n/a	n/a
203.81381750002038	1.1176705999532714	ITI	n/a	n/a	n/a
205.54565009998623	3.065724699990824	decision-missed	n/a	n/a	F
209.1593950999668	1.0156161000486463	win	n/a	n/a	n/a
210.1750153999892	5.31751299998723	ITI	n/a	n/a	n/a
216.08691349998116	3.066761600028258	decision-missed	n/a	n/a	M
219.70070500002475	1.0157052999711595	loss	n/a	n/a	n/a
220.71641489997273	5.3174861000152305	ITI	n/a	n/a	n/a
226.64501049998216	3.0646902000298724	decision-missed	n/a	n/a	M
230.25861540000187	1.015780400019139	win	n/a	n/a	n/a
231.27439879998565	3.2169281000387855	ITI	n/a	n/a	n/a
235.1048376999679	3.0644677000236697	decision-missed	n/a	n/a	F
238.71832739998354	1.0157680999836884	loss	n/a	n/a	n/a
239.7341000000015	1.1177107999683358	ITI	n/a	n/a	n/a
241.46611959999427	3.0659832999808714	decision-missed	n/a	n/a	F
245.07968470000196	1.0159047999768518	win	n/a	n/a	n/a
246.09559260000242	3.216032499971334	ITI	n/a	n/a	n/a
249.92590919998474	3.067668900010176	decision-missed	n/a	n/a	F
253.53953670000192	1.0157832999830134	loss	n/a	n/a	n/a
254.55532480002148	1.1176743999822065	ITI	n/a	n/a	n/a
256.2706149999867	3.0633537999819964	decision-missed	n/a	n/a	M
259.8842762999702	1.0157850000541657	loss	n/a	n/a	n/a
260.9000659000012	1.1172411000006832	ITI	n/a	n/a	n/a
262.63198700000066	3.065367300005164	decision-missed	n/a	n/a	M
266.245657499996	1.0158148999908008	loss	n/a	n/a	n/a
267.26147670001956	1.117870599962771	ITI	n/a	n/a	n/a
268.9769219000009	3.062669000006281	decision-missed	n/a	n/a	M
272.59054860001197	1.0158098000101745	win	n/a	n/a	n/a
273.6063630999997	5.3166674000094645	ITI	n/a	n/a	n/a
279.5348367000115	3.0055151999695227	decision	2.0628157999599352	left	F
283.081915799994	1.0157791000092402	loss	n/a	n/a	n/a
284.0976993999793	1.1176310000009835	ITI	n/a	n/a	n/a
285.84653659997275	3.0052534000133164	decision	1.0335855000303127	right	F
289.39330190001056	1.0158593999803998	loss	n/a	n/a	n/a
290.4091656000237	3.216646299988497	ITI	n/a	n/a	n/a
294.2394708999782	3.0620812000124715	decision-missed	n/a	n/a	F
297.8530543000088	1.0156990999821573	win	n/a	n/a	n/a
298.8687579999678	5.316740200039931	ITI	n/a	n/a	n/a
304.780781199981	3.0640660999924876	decision-missed	n/a	n/a	M
308.39439349999884	1.0159459999995306	loss	n/a	n/a	n/a
309.41034399997443	5.317036700027529	ITI	n/a	n/a	n/a
315.33877169998595	3.061981000006199	decision-missed	n/a	n/a	F
318.9524126999895	1.0157337000127882	win	n/a	n/a	n/a
319.9681509999791	1.1184150000335649	ITI	n/a	n/a	n/a
321.70014590001665	3.066598499950487	decision-missed	n/a	n/a	F
325.3139487999724	1.0154889000114053	loss	n/a	n/a	n/a
326.3294406000059	1.1179125999915414	ITI	n/a	n/a	n/a
328.04505780001637	3.065180199977476	decision-missed	n/a	n/a	M
331.658580599993	1.0157821999746375	loss	n/a	n/a	n/a
332.67436689999886	5.317435899982229	ITI	n/a	n/a	n/a
338.6030326000182	3.0629445999511518	decision-missed	n/a	n/a	M
342.2166510000243	1.0158088999451138	loss	n/a	n/a	n/a
343.232462999993	1.1174270000192337	ITI	n/a	n/a	n/a
344.9643271000241	3.066686899983324	decision-missed	n/a	n/a	F
348.5780205000192	1.0157501999638043	loss	n/a	n/a	n/a
349.59377520001726	3.2167159999953583	ITI	n/a	n/a	n/a
353.42399999999907	3.065326099982485	decision-missed	n/a	n/a	F
357.03774910001084	1.0157533999881707	win	n/a	n/a	n/a
358.0535071999766	7.417239300033543	ITI	n/a	n/a	n/a
366.0970857000211	3.0640928999637254	decision-missed	n/a	n/a	F
369.71059899998363	1.015876899997238	loss	n/a	n/a	n/a
370.7264805000159	1.1177690000040457	ITI	n/a	n/a	n/a
372.4418215000187	3.0617494999896735	decision-missed	n/a	n/a	M
376.055503999989	1.0156946000060998	win	n/a	n/a	n/a
377.07120289996965	1.1184842000366189	ITI	n/a	n/a	n/a
378.7865745999734	3.0658166000503115	decision-missed	n/a	n/a	M
382.4002303999732	1.0158652000245638	loss	n/a	n/a	n/a
383.41609979997156	1.1178457000060007	ITI	n/a	n/a	n/a
385.1313910000026	3.0634411000064574	decision-missed	n/a	n/a	M
388.7449797000154	1.0157684999867342	loss	n/a	n/a	n/a
389.76075279997895	3.216926000022795	ITI	n/a	n/a	n/a
393.5911189999897	3.063692900002934	decision-missed	n/a	n/a	F
397.2046712000156	1.0157446999801323	loss	n/a	n/a	n/a
398.220420299971	5.316157600027509	ITI	n/a	n/a	n/a
404.1657471000217	3.065691399970092	decision-missed	n/a	n/a	F
407.77931279997574	1.0159230999997817	loss	n/a	n/a	n/a
408.7952407000121	5.317032899998594	ITI	n/a	n/a	n/a
414.72421419998864	3.065496900002472	decision-missed	n/a	n/a	M
418.3372341999784	1.0159763999981806	loss	n/a	n/a	n/a
419.3532152000116	5.317397499980871	ITI	n/a	n/a	n/a
425.2817061999813	3.066606700012926	decision-missed	n/a	n/a	F
428.89536680001765	1.015651199966669	win	n/a	n/a	n/a
429.9110225000186	3.2169908999931067	ITI	n/a	n/a	n/a
433.7413693999988	3.066604499996174	decision-missed	n/a	n/a	F
437.35525590000907	1.015550699958112	win	n/a	n/a	n/a
438.37081140000373	1.1177060999907553	ITI	n/a	n/a	n/a
440.1028987999889	3.0621129000210203	decision-missed	n/a	n/a	F
443.7164362000185	1.0158205999759957	loss	n/a	n/a	n/a
444.73226109996904	3.2176567999995314	ITI	n/a	n/a	n/a
448.56257720000576	3.0607471999828704	decision-missed	n/a	n/a	M
452.1762099000043	1.0156202999642119	win	n/a	n/a	n/a
453.1918347000028	3.2167595999781042	ITI	n/a	n/a	n/a
457.0222769000102	3.0657588999602012	decision-missed	n/a	n/a	F
460.635788900021	1.0158938999520615	win	n/a	n/a	n/a
461.65168750000885	1.1182268999982625	ITI	n/a	n/a	n/a
463.40031749999616	3.06743459997233	decision-missed	n/a	n/a	F
467.01405180001166	1.0158140999847092	win	n/a	n/a	n/a
468.02987029997166	1.1176502000307664	ITI	n/a	n/a	n/a
469.77873630000977	3.0055774999782443	decision	1.033863399992697	left	F
473.32582869997714	1.0158794000162743	win	n/a	n/a	n/a
474.34171259996947	1.118201500037685	ITI	n/a	n/a	n/a
476.0738637999748	3.070430700026918	decision-missed	n/a	n/a	M
479.68748000002233	1.0155236999853514	win	n/a	n/a	n/a
480.7030079999822	5.316665199992713	ITI	n/a	n/a	n/a
486.6478207000182	3.067697999998927	decision-missed	n/a	n/a	M
490.26202239998383	1.0156145000364631	win	n/a	n/a	n/a
491.27764240000397	5.317110400006641	ITI	n/a	n/a	n/a
497.2061762000085	3.0640393999638036	decision-missed	n/a	n/a	M
500.81985550001264	1.0155088999890722	loss	n/a	n/a	n/a
501.8353689999785	5.316407100006472	ITI	n/a	n/a	n/a
