onset	duration	trial_type	rt	resp
0.00040600000647827983	0.6135651000076905	fixation_1	999	999
0.6141034999745898	3.0051787000265904	face	1.3026878000237048	2
3.6193346999934874	0.6135651000076905	fixation_2	999	999
4.161187399993651	1.015841000014916	feedback win	999	999
5.177032899984624	5.316992799984291	ITI	999	999
10.502726999984588	0.5860507999896072	fixation_1	999	999
11.08892409998225	3.0628332000342198	face	n/a	n/a
14.151806699985173	0.5860507999896072	fixation_2	999	999
14.702572299982421	1.0159175000153482	feedback loss	999	999
15.718493499967735	1.1176128000370227	ITI	999	999
16.84162359999027	0.591986800020095	fixation_1	999	999
17.433790799987037	3.063210499996785	face	n/a	n/a
20.49704930000007	0.591986800020095	fixation_2	999	999
21.04742560000159	1.0156105000060052	feedback win	999	999
22.06304059998365	1.1176758999936283	ITI	999	999
23.186127999972086	0.6089623000007123	fixation_1	999	999
23.795211600023322	3.065343299997039	face	n/a	n/a
26.860605099995155	0.6089623000007123	fixation_2	999	999
27.408978999999817	1.0155846999841742	feedback win	999	999
28.42456900002435	3.2165583999594674	ITI	999	999
31.64666440000292	0.6080995000083931	fixation_1	999	999
32.25488409999525	3.0664234000141732	face	n/a	n/a
35.32135460001882	0.6080995000083931	fixation_2	999	999
35.868482600024436	1.0157848999951966	feedback loss	999	999
36.88427209999645	5.316046699997969	ITI	999	999
42.205842899973504	0.5903411000035703	fixation_1	999	999
42.79630859999452	3.065684599976521	face	n/a	n/a
45.862040999985766	0.5903411000035703	fixation_2	999	999
46.40983169997344	1.0156781999976374	feedback loss	999	999
47.42551440000534	3.217456799990032	ITI	999	999
50.64855839998927	0.59055389999412	fixation_1	999	999
51.239226899982896	3.0618567999918014	face	n/a	n/a
54.30112969997572	0.59055389999412	fixation_2	999	999
54.85296390001895	1.0156302999821492	feedback win	999	999
55.86859759996878	3.2175671000150032	ITI	999	999
59.091675799980294	0.607023400021717	fixation_1	999	999
59.69881919998443	3.067671300028451	face	n/a	n/a
62.76653790002456	0.607023400021717	fixation_2	999	999
63.312607800005935	1.0002410999732092	feedback loss	999	999
64.3128537000157	1.1170687999692746	ITI	999	999
65.43546649999917	0.6081709999707527	fixation_1	999	999
66.04375790001359	3.0664714999729767	face	n/a	n/a
69.1102777000051	0.6081709999707527	fixation_2	999	999
69.65737620001892	1.015736899978947	feedback win	999	999
70.6731173999724	1.1178463000105694	ITI	999	999
71.79672220000066	0.6083921999670565	fixation_1	999	999
72.40523689996917	3.064199800021015	face	n/a	n/a
75.46948460000567	0.6083921999670565	fixation_2	999	999
76.01894059998449	1.0155597000266425	feedback win	999	999
77.03450339997653	1.1186321999994107	ITI	999	999
78.15895489999093	0.6075380999827757	fixation_1	999	999
78.7666179999942	3.0671089999959804	face	n/a	n/a
81.83377779996954	0.6075380999827757	fixation_2	999	999
82.38024540001061	1.015682499972172	feedback loss	999	999
83.3959325000178	3.216015499958303	ITI	999	999
86.61770359997172	0.6085404000477865	fixation_1	999	999
87.22642010002164	3.0644727999460883	face	n/a	n/a
90.29094169999007	0.6085404000477865	fixation_2	999	999
90.83991879998939	1.0158127000322565	feedback loss	999	999
91.8557368000038	1.1176644999650307	ITI	999	999
92.97961390001001	0.6079981999937445	fixation_1	999	999
93.58773109997855	3.066120600036811	face	n/a	n/a
96.65389810001943	0.6079981999937445	fixation_2	999	999
97.201387899986	1.015810600016266	feedback win	999	999
98.21720289997756	5.3168162000365555	ITI	999	999
103.53997799998615	0.6056375000043772	fixation_1	999	999
104.14573139999993	3.063391799980309	face	n/a	n/a
107.2091730000102	0.6056375000043772	fixation_2	999	999
107.75945169996703	1.0157175000058487	feedback win	999	999
108.77517390000867	1.1172020999947563	ITI	999	999
109.89828760002274	0.6087431999621913	fixation_1	999	999
110.50717090000398	3.0650864000199363	face	n/a	n/a
113.57230379997054	0.6087431999621913	fixation_2	999	999
114.12099520000629	1.0154383999761194	feedback win	999	999
115.13643800001591	5.316604299994651	ITI	999	999
120.45916139998008	0.5891572000109591	fixation_1	999	999
121.04843189998064	3.061829200014472	face	n/a	n/a
124.11030840000603	0.5891572000109591	fixation_2	999	999
124.66193900001235	1.015938800002914	feedback win	999	999
125.6778828999959	3.21706280001672	ITI	999	999
128.90095380001003	0.6069666999974288	fixation_1	999	999
129.50803590001306	3.0665113999857567	face	n/a	n/a
132.57459510001354	0.6069666999974288	fixation_2	999	999
133.1217597000068	1.0158359999768436	feedback win	999	999
134.13760040001944	3.2168926000013016	ITI	999	999
137.36061179998796	0.5906440999824554	fixation_1	999	999
137.9514036999899	3.0619570999988355	face	n/a	n/a
141.01340860000346	0.5906440999824554	fixation_2	999	999
141.56496519997017	1.0156738000223413	feedback win	999	999
142.5806433999678	3.2166275000199676	ITI	999	999
145.8034848999814	0.6073190000024624	fixation_1	999	999
146.41091779997805	3.0625735000357963	face	n/a	n/a
149.47353989997646	0.6073190000024624	fixation_2	999	999
150.02446089999285	1.015880200022366	feedback win	999	999
151.0403454999905	11.61672659998294	ITI	999	999
162.6634197999956	0.6001555999973789	fixation_1	999	999
163.26369330001762	3.068275499972515	face	n/a	n/a
166.33201660000486	0.6001555999973789	fixation_2	999	999
166.87737349997042	1.0158810000284575	feedback loss	999	999
167.89325919997646	5.317018200003076	ITI	999	999
173.21686909999698	0.6047684000222944	fixation_1	999	999
173.82176149997395	3.0624980000429787	face	n/a	n/a
176.8843073999742	0.6047684000222944	fixation_2	999	999
177.43550570000662	1.0156884000170976	feedback win	999	999
178.4512011000188	5.316965399950277	ITI	999	999
183.77461979998043	0.6050761000369675	fixation_1	999	999
184.37982699996792	3.063247100042645	face	n/a	n/a
187.44312100001844	0.6050761000369675	fixation_2	999	999
187.9933941999916	1.0158775000018068	feedback loss	999	999
189.00927599996794	3.216672100010328	ITI	999	999
192.2322822000133	0.5903772999881767	fixation_1	999	999
192.82277949998388	3.0647009999956936	face	n/a	n/a
195.88754419999896	0.5903772999881767	fixation_2	999	999
196.43662310001673	1.0164280000026338	feedback loss	999	999
197.45305559999542	1.117469999997411	ITI	999	999
198.57679299998563	0.6072543000336736	fixation_1	999	999
199.18416770000476	3.064832500007469	face	n/a	n/a
202.24904909997713	0.6072543000336736	fixation_2	999	999
202.79781199997524	1.0160022000200115	feedback loss	999	999
203.81381750002038	1.1176705999532714	ITI	999	999
204.93819919996895	0.6073299000272527	fixation_1	999	999
205.54565009998623	3.065724699990824	face	n/a	n/a
208.6114217999857	0.6073299000272527	fixation_2	999	999
209.1593950999668	1.0156161000486463	feedback win	999	999
210.1750153999892	5.31751299998723	ITI	999	999
215.4990476000239	0.5877501999493688	fixation_1	999	999
216.08691349998116	3.066761600028258	face	n/a	n/a
219.1537225000211	0.5877501999493688	fixation_2	999	999
219.70070500002475	1.0157052999711595	feedback loss	999	999
220.71641489997273	5.3174861000152305	ITI	999	999
226.04071630002	0.6041759999934584	fixation_1	999	999
226.64501049998216	3.0646902000298724	face	n/a	n/a
229.70974829996703	0.6041759999934584	fixation_2	999	999
230.25861540000187	1.015780400019139	feedback win	999	999
231.27439879998565	3.2169281000387855	ITI	999	999
234.4979072000133	0.6068016999633983	fixation_1	999	999
235.1048376999679	3.0644677000236697	face	n/a	n/a
238.1693540000124	0.6068016999633983	fixation_2	999	999
238.71832739998354	1.0157680999836884	feedback loss	999	999
239.7341000000015	1.1177107999683358	ITI	999	999
240.8584230999695	0.6075667000259273	fixation_1	999	999
241.46611959999427	3.0659832999808714	face	n/a	n/a
244.53215119999368	0.6075667000259273	fixation_2	999	999
245.07968470000196	1.0159047999768518	feedback win	999	999
246.09559260000242	3.216032499971334	ITI	999	999
249.31829849997303	0.607490400027018	fixation_1	999	999
249.92590919998474	3.067668900010176	face	n/a	n/a
252.99362620001193	0.607490400027018	fixation_2	999	999
253.53953670000192	1.0157832999830134	feedback loss	999	999
254.55532480002148	1.1176743999822065	ITI	999	999
255.67967139999382	0.5908244000165723	fixation_1	999	999
256.2706149999867	3.0633537999819964	face	n/a	n/a
259.33401759999106	0.5908244000165723	fixation_2	999	999
259.8842762999702	1.0157850000541657	feedback loss	999	999
260.9000659000012	1.1172411000006832	ITI	999	999
262.02386999997543	0.6079839000012726	fixation_1	999	999
262.63198700000066	3.065367300005164	face	n/a	n/a
265.69740210002055	0.6079839000012726	fixation_2	999	999
266.245657499996	1.0158148999908008	feedback loss	999	999
267.26147670001956	1.117870599962771	ITI	999	999
268.3860874000238	0.5907165999524295	fixation_1	999	999
268.9769219000009	3.062669000006281	face	n/a	n/a
272.03963800001657	0.5907165999524295	fixation_2	999	999
272.59054860001197	1.0158098000101745	feedback win	999	999
273.6063630999997	5.3166674000094645	ITI	999	999
278.92996370000765	0.604764299991075	fixation_1	999	999
279.5348367000115	3.0055151999695227	face	2.0628157999599352	2
282.54040569998324	0.604764299991075	fixation_2	999	999
283.081915799994	1.0157791000092402	feedback loss	999	999
284.0976993999793	1.1176310000009835	ITI	999	999
285.2254429999739	0.6209742000210099	fixation_1	999	999
285.84653659997275	3.0052534000133164	face	1.0335855000303127	3
288.8518423999776	0.6209742000210099	fixation_2	999	999
289.39330190001056	1.0158593999803998	feedback loss	999	999
290.4091656000237	3.216646299988497	ITI	999	999
293.6331427000114	0.6061821999610402	fixation_1	999	999
294.2394708999782	3.0620812000124715	face	n/a	n/a
297.3015993000008	0.6061821999610402	fixation_2	999	999
297.8530543000088	1.0156990999821573	feedback win	999	999
298.8687579999678	5.316740200039931	ITI	999	999
304.1925119999796	0.5881483000121079	fixation_1	999	999
304.780781199981	3.0640660999924876	face	n/a	n/a
307.84489419998135	0.5881483000121079	fixation_2	999	999
308.39439349999884	1.0159459999995306	feedback loss	999	999
309.41034399997443	5.317036700027529	ITI	999	999
314.7344430999947	0.604215600003954	fixation_1	999	999
315.33877169998595	3.061981000006199	face	n/a	n/a
318.4008010000107	0.604215600003954	fixation_2	999	999
318.9524126999895	1.0157337000127882	feedback win	999	999
319.9681509999791	1.1184150000335649	ITI	999	999
321.0938474999857	0.6061847000382841	fixation_1	999	999
321.70014590001665	3.066598499950487	face	n/a	n/a
324.7667917999788	0.6061847000382841	fixation_2	999	999
325.3139487999724	1.0154889000114053	feedback loss	999	999
326.3294406000059	1.1179125999915414	ITI	999	999
327.45429379999405	0.590646900003776	fixation_1	999	999
328.04505780001637	3.065180199977476	face	n/a	n/a
331.1102868000162	0.590646900003776	fixation_2	999	999
331.658580599993	1.0157821999746375	feedback loss	999	999
332.67436689999886	5.317435899982229	ITI	999	999
337.99915380001767	0.6037628999911249	fixation_1	999	999
338.6030326000182	3.0629445999511518	face	n/a	n/a
341.66602579999017	0.6037628999911249	fixation_2	999	999
342.2166510000243	1.0158088999451138	feedback loss	999	999
343.232462999993	1.1174270000192337	ITI	999	999
344.3573312999797	0.6068560000276193	fixation_1	999	999
344.9643271000241	3.066686899983324	face	n/a	n/a
348.03106100001605	0.6068560000276193	fixation_2	999	999
348.5780205000192	1.0157501999638043	feedback loss	999	999
349.59377520001726	3.2167159999953583	ITI	999	999
352.8175057999906	0.6063750000321306	fixation_1	999	999
353.42399999999907	3.065326099982485	face	n/a	n/a
356.4893730999902	0.6063750000321306	fixation_2	999	999
357.03774910001084	1.0157533999881707	feedback win	999	999
358.0535071999766	7.417239300033543	ITI	999	999
365.47835069999564	0.6186167999985628	fixation_1	999	999
366.0970857000211	3.0640928999637254	face	n/a	n/a
369.16122599999653	0.6186167999985628	fixation_2	999	999
369.71059899998363	1.015876899997238	feedback loss	999	999
370.7264805000159	1.1177690000040457	ITI	999	999
371.85146119998535	0.5902424000087194	fixation_1	999	999
372.4418215000187	3.0617494999896735	face	n/a	n/a
375.503621699987	0.5902424000087194	fixation_2	999	999
376.055503999989	1.0156946000060998	feedback win	999	999
377.07120289996965	1.1184842000366189	ITI	999	999
378.19711080001434	0.5893440999789163	fixation_1	999	999
378.7865745999734	3.0658166000503115	face	n/a	n/a
381.8524387999787	0.5893440999789163	fixation_2	999	999
382.4002303999732	1.0158652000245638	feedback loss	999	999
383.41609979997156	1.1178457000060007	ITI	999	999
384.5411689999746	0.5901083000353537	fixation_1	999	999
385.1313910000026	3.0634411000064574	face	n/a	n/a
388.19487980002305	0.5901083000353537	fixation_2	999	999
388.7449797000154	1.0157684999867342	feedback loss	999	999
389.76075279997895	3.216926000022795	ITI	999	999
392.9850825999747	0.6059155000257306	fixation_1	999	999
393.5911189999897	3.063692900002934	face	n/a	n/a
396.65486030001193	0.6059155000257306	fixation_2	999	999
397.2046712000156	1.0157446999801323	feedback loss	999	999
398.220420299971	5.316157600027509	ITI	999	999
403.5440993999946	0.6215276999864727	fixation_1	999	999
404.1657471000217	3.065691399970092	face	n/a	n/a
407.2314863000065	0.6215276999864727	fixation_2	999	999
407.77931279997574	1.0159230999997817	feedback loss	999	999
408.7952407000121	5.317032899998594	ITI	999	999
414.12032159999944	0.6037189000053331	fixation_1	999	999
414.72421419998864	3.065496900002472	face	n/a	n/a
417.78975890000584	0.6037189000053331	fixation_2	999	999
418.3372341999784	1.0159763999981806	feedback loss	999	999
419.3532152000116	5.317397499980871	ITI	999	999
424.67798779997975	0.6036000000312924	fixation_1	999	999
425.2817061999813	3.066606700012926	face	n/a	n/a
428.34836060000816	0.6036000000312924	fixation_2	999	999
428.89536680001765	1.015651199966669	feedback win	999	999
429.9110225000186	3.2169908999931067	ITI	999	999
433.13539599999785	0.6058543000253849	fixation_1	999	999
433.7413693999988	3.066604499996174	face	n/a	n/a
436.8080217000097	0.6058543000253849	fixation_2	999	999
437.35525590000907	1.015550699958112	feedback win	999	999
438.37081140000373	1.1177060999907553	ITI	999	999
439.49644580000313	0.6063241999945603	fixation_1	999	999
440.1028987999889	3.0621129000210203	face	n/a	n/a
443.1650598999695	0.6063241999945603	fixation_2	999	999
443.7164362000185	1.0158205999759957	feedback loss	999	999
444.73226109996904	3.2176567999995314	ITI	999	999
447.9576372000156	0.6047804999980144	fixation_1	999	999
448.56257720000576	3.0607471999828704	face	n/a	n/a
451.62337270000717	0.6047804999980144	fixation_2	999	999
452.1762099000043	1.0156202999642119	feedback win	999	999
453.1918347000028	3.2167595999781042	ITI	999	999
456.4162510000169	0.6059054000070319	fixation_1	999	999
457.0222769000102	3.0657588999602012	face	n/a	n/a
460.0880835999851	0.6059054000070319	fixation_2	999	999
460.635788900021	1.0158938999520615	feedback win	999	999
461.65168750000885	1.1182268999982625	ITI	999	999
462.7777103999979	0.6224860000074841	fixation_1	999	999
463.40031749999616	3.06743459997233	face	n/a	n/a
466.4677990999771	0.6224860000074841	fixation_2	999	999
467.01405180001166	1.0158140999847092	feedback win	999	999
468.02987029997166	1.1176502000307664	ITI	999	999
469.1554994999897	0.6230781000340357	fixation_1	999	999
469.77873630000977	3.0055774999782443	face	1.033863399992697	2
472.7843650999712	0.6230781000340357	fixation_2	999	999
473.32582869997714	1.0158794000162743	feedback win	999	999
474.34171259996947	1.118201500037685	ITI	999	999
475.46800270001404	0.6057254999759607	fixation_1	999	999
476.0738637999748	3.070430700026918	face	n/a	n/a
479.144340800005	0.6057254999759607	fixation_2	999	999
479.68748000002233	1.0155236999853514	feedback win	999	999
480.7030079999822	5.316665199992713	ITI	999	999
486.0296695000143	0.618006200005766	fixation_1	999	999
486.6478207000182	3.067697999998927	face	n/a	n/a
489.715584199992	0.618006200005766	fixation_2	999	999
490.26202239998383	1.0156145000364631	feedback win	999	999
491.27764240000397	5.317110400006641	ITI	999	999
496.6038131000241	0.6022302999626845	fixation_1	999	999
497.2061762000085	3.0640393999638036	face	n/a	n/a
500.270263399987	0.6022302999626845	fixation_2	999	999
500.81985550001264	1.0155088999890722	feedback loss	999	999
501.8353689999785	5.316407100006472	ITI	999	999
