TrialNumber,nTrial,Block,Endowment,ITI,ISI,L_Option,R_Option,ran,order,cue_Onset,endowment_onset,endowment_offset,ISI_onset,ISI_offset,decision_onset,resp,rt,resp_onset,decision_offset,trialDuration,ITIonset,ITIoffset
1,1,1,23,5,1.5,10,1,1.0,0.0,5.001801,6.0004296,6.0169954,6.017208,7.534278,7.5344357,2.0,0.9662252,8.500661,11.0518875,3.5180726,11.052634,16.05357
2,2,1,25,3,3,5,8,1.0,1.0,17.05179,18.050747,18.067223,18.067495,21.084225,21.084343,3.0,1.1162591,22.200602,24.601597,3.5177848,24.602232,27.603916
3,3,1,19,3,1.5,9,6,1.0,2.0,28.602203,29.60045,29.616964,29.617132,31.134888,31.135006,2.0,1.215687,32.350693,34.65196,3.517478,34.652584,37.65391
4,4,1,17,5,1.5,5,3,1.0,3.0,38.651787,39.65038,39.666954,39.667133,41.18418,41.1843,3.0,1.1662982,42.350597,44.702545,3.5187738,44.703175,49.705036
5,5,3,17,5,3,0,5,1.0,4.0,50.701496,51.70068,51.717228,51.717426,54.73592,54.736065,3.0,0.5483527,55.28442,58.2529,3.5173783,58.253567,63.2549
6,6,1,25,3,1.5,5,11,1.0,5.0,64.25153,65.25034,65.26697,65.267105,66.78423,66.78435,2.0,0.6665156,67.45086,70.30176,3.5179465,70.30239,73.30326
7,7,3,15,3,4.5,7,0,1.0,6.0,74.30148,75.30037,75.317,75.31712,79.83381,79.833954,2.0,0.366627,80.200584,83.3509,3.5174696,83.351524,86.35359
8,8,2,19,3,1.5,6,9,1.0,7.0,87.35146,88.35031,88.36693,88.367096,89.88491,89.88503,2.0,0.7494961,90.63453,93.401855,3.5173526,93.40249,96.4048
9,9,2,19,1,1.5,4,1,1.0,8.0,97.401436,98.40028,98.416885,98.416985,99.93409,99.934204,3.0,0.5836269,100.51783,103.45071,3.5170336,103.45134,104.4529
10,10,1,15,1,1.5,5,7,1.0,9.0,105.45159,106.45025,106.46689,106.46705,107.98387,107.983986,2.0,0.3665422,108.35053,111.50191,3.5184488,111.50254,112.50489
11,11,2,15,5,1.5,3,1,1.0,10.0,113.50155,114.500175,114.51696,114.517136,116.03482,116.03494,2.0,0.3995593,116.4345,119.55138,3.5169725,119.55202,124.55503
12,12,2,21,1,1.5,4,7,1.0,11.0,125.552124,126.55029,126.56725,126.56753,128.08507,128.08519,3.0,0.3995483,128.48474,131.6019,3.5172331,131.60254,132.60358
13,13,3,23,1,3,10,0,1.0,12.0,133.60143,134.60016,134.6169,134.61705,137.63393,137.63406,3.0,0.5339734,138.16805,141.15193,3.5184143,141.15259,142.15363
14,14,2,19,3,4.5,6,4,1.0,13.0,143.15132,144.15018,144.16685,144.16698,148.68544,148.68556,3.0,2.3324058,151.01797,152.20163,3.5165899,152.20226,155.20398
15,15,2,15,1,1.5,5,1,1.0,14.0,156.20137,157.20015,157.21689,157.21706,158.73392,158.73404,2.0,0.9504933,159.68452,162.24991,3.5164073,162.25055,163.2519
16,16,2,23,8,3,1,7,1.0,15.0,164.25148,165.25034,165.26685,165.26703,168.28493,168.28503,2.0,0.8329743,169.11801,171.80281,3.5182998,171.80344,179.80447
17,17,3,17,8,1.5,5,0,1.0,16.0,180.80136,181.80008,181.81685,181.81699,183.33397,183.3341,2.0,0.5160308,183.85014,186.85191,3.5183284,186.85254,194.8539
18,18,1,17,1,3,8,3,1.0,17.0,195.85121,196.85008,196.86682,196.867,199.88477,199.88487,2.0,0.7998761,200.68475,203.40147,3.5171313,203.40211,204.40439
19,19,3,21,1,1.5,9,0,1.0,18.0,205.40132,206.40005,206.41675,206.41689,207.9339,207.93404,2.0,1.3838048,209.31784,211.4519,3.5183878,211.45253,212.4535
20,20,1,23,3,3,1,4,1.0,19.0,213.45189,214.45003,214.46683,214.46695,217.48346,217.48358,2.0,0.6666376,218.1502,221.00192,3.51887,221.00255,224.0061
21,21,2,23,1,4.5,7,4,1.0,20.0,225.00177,226.00002,226.01668,226.01686,230.53491,230.53502,2.0,0.5998341,231.13486,234.05103,3.516535,234.05167,235.05333
22,22,3,25,1,3,2,0,1.0,21.0,236.05124,237.05026,237.06706,237.06729,240.08342,240.08356,2.0,1.6346374,241.7182,243.60092,3.5179,243.60156,244.60292
23,23,3,25,5,1.5,0,5,1.0,22.0,245.60179,246.6,246.61676,246.61691,248.13445,248.13458,3.0,2.1329036,250.26749,251.65192,3.5178673,251.65256,256.65393
24,24,3,21,1,1.5,1,0,1.0,23.0,257.6512,258.65012,258.66663,258.66678,260.18466,260.1848,3.0,1.6334044,261.81824,263.7013,3.517027,263.70193,264.70294
25,25,2,15,1,1.5,1,3,1.0,24.0,265.70215,266.69998,266.71674,266.71692,268.23492,268.23505,3.0,1.1829636,269.418,271.75192,3.5174246,271.75256,272.75342
26,26,2,19,3,1.5,4,1,1.0,25.0,273.7512,274.75003,274.76663,274.7668,276.2837,276.2838,2.0,0.883772,277.16757,279.8006,3.5173075,279.8012,282.80292
27,27,3,19,1,1.5,1,0,1.0,26.0,283.80136,284.79993,284.8167,284.8168,286.33325,286.33337,3.0,1.4668909,287.80026,289.85162,3.5187626,289.85223,290.85394
28,28,3,17,1,4.5,0,1,1.0,27.0,291.85147,292.84998,292.8666,292.86673,297.38403,297.3842,3.0,0.983343,298.36752,300.90167,3.5179975,300.90228,301.90396
29,29,2,21,3,3,1,4,1.0,28.0,302.9012,303.9,303.91672,303.91687,306.93494,306.93506,2.0,1.7651021,308.70016,310.45193,3.5173936,310.45255,313.4547
30,30,3,19,3,4.5,0,6,1.0,29.0,314.45132,315.44995,315.46658,315.46674,319.9841,319.98425,2.0,0.9656858,320.94992,323.50293,3.5191953,323.50354,326.50494
31,31,1,21,1,1.5,1,7,1.0,30.0,327.50177,328.50024,328.5169,328.51718,330.0344,330.03452,3.0,1.6505698,331.6851,333.54996,3.5159614,333.5506,334.55194
32,32,1,23,1,3,1,10,1.0,31.0,335.5513,336.54996,336.56656,336.5667,339.58392,339.58405,2.0,1.7498531,341.3339,343.10092,3.5174067,343.10156,344.1029
33,33,1,17,1,1.5,8,5,1.0,32.0,345.10123,346.09995,346.1166,346.1167,347.63495,347.63504,2.0,0.749443,348.3845,351.15195,3.517425,351.1526,352.15366
34,34,2,21,1,1.5,1,7,1.0,33.0,353.15115,354.15027,354.16687,354.16705,355.6849,355.68503,3.0,0.9324246,356.61746,359.20306,3.5185559,359.2037,360.20453
35,35,3,19,8,4.5,0,1,1.0,34.0,361.2013,362.19995,362.21658,362.21674,366.73492,366.73508,2.0,1.5824764,368.31757,370.25296,3.5184078,370.2536,378.25537
36,36,1,15,1,3,7,3,1.0,35.0,379.2511,380.2499,380.2665,380.2666,383.28394,383.28406,2.0,1.9336246,385.21768,386.80084,3.5173006,386.80148,387.80353
