onset	duration	trial_type	rt	resp	gender
0.6102444839198142	3.0054488083114848	decision	1.550423210952431	left	M
4.163070302340202	1.0005660118767992	win	n/a	n/a	n/a
11.08537814579904	3.005446695140563	decision	1.5502496338449419	right	M
14.638233547681011	1.000715740956366	loss	n/a	n/a	n/a
17.340659188106656	3.0065729833440855	decision	2.066793332574889	right	M
20.893196415854618	1.001067121163942	win	n/a	n/a	n/a
23.61242732789833	3.0057690955	decision	1.5508410030743107	left	F
27.16498085670173	1.001023047720082	win	n/a	n/a	n/a
31.98617783759255	3.00545816635713	decision	1.549415860674344	left	F
35.5390833504498	1.0003830769564956	loss	n/a	n/a	n/a
42.46109626395628	3.0054753731237724	decision	1.5515498011372983	right	M
46.01428946189117	1.0006233677268028	loss	n/a	n/a	n/a
50.818289038026705	3.0062677897512913	decision	1.5512847565114498	right	M
54.370899922796525	1.0010825166245922	win	n/a	n/a	n/a
59.191604850580916	3.006943079759367	decision	1.800928320037201	left	F
62.744810123345815	1.0005648045334965	loss	n/a	n/a	n/a
65.48008437955286	3.00517833000049	decision	1.8011818933300674	right	F
69.03311094350647	1.0005829167785123	win	n/a	n/a	n/a
71.75241038075183	3.0051218796288595	decision	2.06710697861854	left	F
75.30496330582537	1.0005116747925058	win	n/a	n/a	n/a
78.02376525627915	3.0057217014255	decision	1.551738471724093	left	F
81.57657779229339	1.000771587365307	loss	n/a	n/a	n/a
86.39788857928943	3.0056317432317883	decision	1.80021559773013	left	M
89.95039773278404	1.0007087979465723	loss	n/a	n/a	n/a
92.6690997632686	3.0063981988932937	decision	1.8008881708374247	right	M
96.222267301986	1.000530994613655	win	n/a	n/a	n/a
103.14446979167406	3.0059945947723463	decision	1.5509714123327285	left	M
106.6976340097608	1.0005056373775005	win	n/a	n/a	n/a
109.41641513095237	3.0053745474433526	decision	1.801051484188065	right	F
112.96921740320977	1.0009472776437178	win	n/a	n/a	n/a
119.89175195340067	3.0051858767401427	decision	1.8002282762899995	right	M
123.44439634599257	1.0007752099772915	win	n/a	n/a	n/a
128.26515349792317	3.005228440859355	decision	1.5512657385552302	left	F
131.8178012111457	1.0012271138839424	win	n/a	n/a	n/a
136.638363956823	3.0060124051524326	decision	1.8002430682536215	left	M
140.1916283967439	1.0009240333456546	win	n/a	n/a	n/a
145.0125219952315	3.0054832217283547	decision	1.8004987546009943	right	F
148.56509273091797	1.0009300707606599	win	n/a	n/a	n/a
161.79280793538783	3.006815991248004	decision	1.8008954158285633	left	M
165.34537565230858	1.0011679467279464	loss	n/a	n/a	n/a
172.2683666344965	3.0059577660867944	decision	1.7999692693119869	left	M
175.8211423419416	1.0005955954547971	win	n/a	n/a	n/a
182.74353803042322	3.0057926416629925	decision	1.5504829817218706	left	M
186.2964821830392	1.0005551445065066	loss	n/a	n/a	n/a
191.11700779828243	3.005914296489209	decision	2.051291246782057	right	M
194.6699776101159	1.0004648844478652	loss	n/a	n/a	n/a
197.3886720937444	3.005687287892215	decision	1.800593240885064	right	F
200.94117158732843	1.001352391205728	loss	n/a	n/a	n/a
203.67752986960113	3.00571868265979	decision	1.8004498512018472	left	F
207.23012898128945	1.000898675993085	win	n/a	n/a	n/a
214.15252255671658	3.0050119980005547	decision	1.8010907276766375	left	M
217.7054042215459	1.0008594325045124	loss	n/a	n/a	n/a
224.62793333805166	3.0055070696398616	decision	1.8012685307767242	left	M
228.180617577862	1.0009907473577186	win	n/a	n/a	n/a
233.00147193286102	3.005675514927134	decision	2.063712718314491	right	F
236.55421594367363	1.0009566356893629	loss	n/a	n/a	n/a
239.2899448206881	3.0062022833153605	decision	2.0512281552655622	left	F
242.8429200660903	1.0005829168949276	win	n/a	n/a	n/a
247.6635981273139	3.0055771042825654	decision	1.2995048377197236	left	F
251.21620086149778	1.0008977703982964	loss	n/a	n/a	n/a
253.96898496104404	3.0052344782743603	decision	2.0671890880912542	right	M
257.5212058258476	1.0011613054666668	loss	n/a	n/a	n/a
260.2406619350659	3.0054820142686367	decision	1.5504669825313613	left	M
263.7932411232032	1.0010743661550805	loss	n/a	n/a	n/a
266.5123977744952	3.005707513424568	decision	1.8007263669278473	right	M
270.06516231258865	1.000934598967433	win	n/a	n/a	n/a
277.00448372017127	3.0056172533659264	decision	2.3176326151005924	right	F
280.5574604750145	1.0004217165987939	loss	n/a	n/a	n/a
283.2927703522146	3.006323334411718	decision	2.068324734456837	right	F
286.8455056087114	1.0009198071202263	loss	n/a	n/a	n/a
291.66647014732007	3.0056190646719187	decision	1.800592637155205	left	F
295.2191800464643	1.0008642624597996	win	n/a	n/a	n/a
302.1427328143036	3.005369415623136	decision	1.8002629918046296	left	M
305.69430918013677	1.0009418439585716	loss	n/a	n/a	n/a
312.63367164239753	3.005375755019486	decision	1.8003496293677017	right	F
316.1863459205488	1.0009201089851558	win	n/a	n/a	n/a
318.92212732345797	3.0059031271375716	decision	1.5509167732670903	right	F
322.4750467224512	1.0006635169265792	loss	n/a	n/a	n/a
325.19416896020994	3.0058415449457243	decision	1.5504108340246603	left	M
328.7468196921982	1.0009587487438694	loss	n/a	n/a	n/a
335.66903606813867	3.006949117174372	decision	1.8009711859049276	left	M
339.2219868618995	1.0011099871480837	loss	n/a	n/a	n/a
341.9409720492549	3.0050150166498497	decision	1.8010074107442051	left	F
345.4939264655113	1.0006502345204353	loss	n/a	n/a	n/a
350.3146594676655	3.0053147765574977	decision	1.8003004239872098	right	F
353.86748619156424	1.0007727949414402	win	n/a	n/a	n/a
362.90856537560467	3.0063613704405725	decision	2.0633987702894956	left	F
366.46106426545884	1.00089565734379	loss	n/a	n/a	n/a
369.18000779440627	3.0059055420570076	decision	2.317739478079602	right	M
372.7329567769775	1.0006444988539442	win	n/a	n/a	n/a
375.45194709615316	3.005895278416574	decision	1.5509828835492954	left	M
379.00508686248213	1.0006620074855164	loss	n/a	n/a	n/a
381.72398390294984	3.0058333944762126	decision	1.8008033444639295	right	M
385.27669259451795	1.0007927186088637	loss	n/a	n/a	n/a
390.097554798238	3.0053250403143466	decision	1.800321857095696	right	F
393.6502671124181	1.0007851717527956	loss	n/a	n/a	n/a
400.58932045660913	3.0065633235499263	decision	2.067561599542387	right	F
404.1422398556024	1.0007281177677214	loss	n/a	n/a	n/a
411.0648507795995	3.0070097936550155	decision	1.800991109572351	right	M
414.6172932191985	1.0010423676576465	loss	n/a	n/a	n/a
421.55671303742565	3.005044298362918	decision	2.3181397618027404	left	F
425.1097498650197	1.0007214765064418	win	n/a	n/a	n/a
429.92995579668786	3.0058240364305675	decision	1.5512032508850098	left	F
433.4829947374528	1.0008247171062976	win	n/a	n/a	n/a
436.2021323707886	3.0056604212149978	decision	2.0637036620173603	left	F
439.7548470997717	1.0008859974332154	loss	n/a	n/a	n/a
444.57608755049296	3.0066804501693696	decision	2.0676859710365534	right	M
448.1283075095853	1.0006336314836517	win	n/a	n/a	n/a
452.94917001517024	3.0055840474087745	decision	1.8004643411841244	left	F
456.5016945642419	1.000754682580009	win	n/a	n/a	n/a
459.2376673546387	3.0050874662119895	decision	1.8010686909547076	left	F
462.7907135402784	1.0006828368641436	win	n/a	n/a	n/a
465.5097714790609	3.0069651164812967	decision	2.317900678375736	right	F
469.0622489360394	1.000979577889666	win	n/a	n/a	n/a
471.78166097181384	3.005882599740289	decision	1.8010493710171431	right	M
475.3342661210336	1.0006604981608689	win	n/a	n/a	n/a
482.25702073657885	3.005672194296494	decision	1.5506837273715064	right	M
485.8094000846613	1.0008630550000817	win	n/a	n/a	n/a
492.73190414567944	3.005630233907141	decision	1.8005989764351398	left	M
496.2847701131832	1.0007996616186574	loss	n/a	n/a	n/a
