onset	duration	trial_type	rt	resp
0.00039545376785099506	0.6078666300745681	fixation_1	999	999
0.608355664415285	3.0052598357433453	face	1.550245407735929	2
3.6136619886383414	0.6078666300745681	fixation_2	999	999
4.160943003138527	1.0008201890159398	feedback win	999	999
5.161775267100893	5.317841813084669	ITI	999	999
10.486278512398712	0.5971096864668652	fixation_1	999	999
11.083482383168302	3.006110815797001	face	1.5509037928422913	2
14.089637574274093	0.5971096864668652	fixation_2	999	999
14.636507135932334	1.0007486450485885	feedback loss	999	999
15.637259101611562	1.1173495185794309	ITI	999	999
16.75971540622413	0.5951016270555556	fixation_1	999	999
17.35490668960847	3.0056730998912826	face	1.3006607095012441	3
20.36062567413319	0.5951016270555556	fixation_2	999	999
20.90803951281123	1.0009379194816574	feedback win	999	999
21.908980149193667	1.1176752395695075	ITI	999	999
23.0318104744656	0.5952060752315447	fixation_1	999	999
23.627106507774442	3.0058095465647057	face	1.2994948759442195	2
26.632961033377796	0.5952060752315447	fixation_2	999	999
27.179833613685332	1.0007166465511546	feedback win	999	999
28.180553279002197	3.217084443778731	ITI	999	999
31.402804581681266	0.5978918394539505	fixation_1	999	999
32.00078969995957	3.005748869967647	face	1.5507486299611628	3
35.00658415269572	0.5978918394539505	fixation_2	999	999
35.55341326328926	1.0008775449823588	feedback loss	999	999
36.5543025812367	5.316651225904934	ITI	999	999
41.876306317863055	0.5993683005217463	fixation_1	999	999
42.475771821453236	3.005752492463216	face	1.3014754648320377	2
45.481573217432015	0.5993683005217463	fixation_2	999	999
46.02897015120834	1.0005916710942984	feedback loss	999	999
47.029573897249065	3.2169440728612244	ITI	999	999
50.25180587999057	0.5976023433031514	fixation_1	999	999
50.849531085579656	3.005980104790069	face	1.5514646728988737	3
53.85555949003901	0.5976023433031514	fixation_2	999	999
54.402349659008905	1.0013457499444485	feedback win	999	999
55.403698427719064	3.2156903941649944	ITI	999	999
58.624551152577624	0.5983102355385199	fixation_1	999	999
59.2229685530765	3.0054575625108555	face	1.550545469392091	2
62.22847411339171	0.5983102355385199	fixation_2	999	999
62.77594349661376	1.0008268302772194	feedback loss	999	999
63.77678240183741	1.1177491984562948	ITI	999	999
64.8997555130627	0.5948389975819737	fixation_1	999	999
65.49469201557804	3.0057908303570002	face	1.800052284495905	2
68.50052752322517	0.5948389975819737	fixation_2	999	999
69.04774363501929	1.0009590506087989	feedback win	999	999
70.04871476057451	1.1177730463678017	ITI	999	999
71.17191065405495	0.5947097958996892	fixation_1	999	999
71.76701318682171	3.0059182207332924	face	1.5501632981467992	2
74.77297699043993	0.5947097958996892	fixation_2	999	999
75.31959177111275	1.000866677495651	feedback win	999	999
76.3204702216899	1.1180275253718719	ITI	999	999
77.44406307826284	0.5942431001458317	fixation_1	999	999
78.03840941900853	3.0056453275028616	face	1.8007731571560726	3
81.04410032939631	0.5942431001458317	fixation_2	999	999
81.59140549367294	1.0008699981262907	feedback loss	999	999
82.59228756674565	3.217169873882085	ITI	999	999
85.81483198807109	0.597132628899999	fixation_1	999	999
86.41207419685088	3.0052879098802805	face	1.5513596209930256	3
89.4174079913646	0.597132628899999	fixation_2	999	999
89.9650228775572	1.0004648844478652	feedback loss	999	999
90.96550044068135	1.117953868350014	ITI	999	999
92.08890704158694	0.5946913815569133	fixation_1	999	999
92.68370075814892	3.0056969478027895	face	1.550750441267155	2
95.6894429869717	0.5946913815569133	fixation_2	999	999
96.23705092992168	1.0005699363537133	feedback win	999	999
97.23763324308675	5.316616510390304	ITI	999	999
102.55983832897618	0.5989239433547482	fixation_1	999	999
103.15887215407565	3.005437940824777	face	1.30053452658467	3
106.16435990401078	0.5989239433547482	fixation_2	999	999
106.71210701041855	1.0009083359036595	feedback win	999	999
107.7130271194037	1.1174129119608551	ITI	999	999
108.8358954807045	0.5949648786336184	fixation_1	999	999
109.43096359993797	3.0057769442209974	face	1.3000092675210908	2
112.43679246632382	0.5949648786336184	fixation_2	999	999
112.98383620858658	1.0009035059483722	feedback win	999	999
113.98475178948138	5.315966275986284	ITI	999	999
119.3062535112258	0.6001429066527635	fixation_1	999	999
119.9065053940285	3.0066849783761427	face	1.2998679910087958	3
122.91323927580379	0.6001429066527635	fixation_2	999	999
123.45932970312424	1.0007178540108725	feedback win	999	999
124.46005963208154	3.2162521799327806	ITI	999	999
127.68196951632854	0.5977765240240842	fixation_1	999	999
128.27986286522355	3.0054795992327854	face	1.8012075524311513	3
131.28538985853083	0.5977765240240842	fixation_2	999	999
131.8329344082158	1.000547295785509	feedback win	999	999
132.83349498640746	3.216564920381643	ITI	999	999
136.05563972785603	0.5979271586984396	fixation_1	999	999
136.6536779757589	3.004663636558689	face	1.5496624908410013	3
139.65838961012196	0.5979271586984396	fixation_2	999	999
140.20612403785344	1.0009871248621494	feedback win	999	999
141.2071141813649	3.2172501721652225	ITI	999	999
144.43021797353867	0.5965814086375758	fixation_1	999	999
145.02691801823676	3.0045773008605465	face	1.8014143356122077	2
148.0315448262263	0.5965814086375758	fixation_2	999	999
148.57986277458258	1.0006309146992862	feedback win	999	999
149.5805057642283	11.616784563171677	ITI	999	999
161.20296221971512	0.6043319987365976	fixation_1	999	999
161.80741617514286	3.0058662986848503	face	2.064186960924417	3
164.8133277547313	0.6043319987365976	fixation_2	999	999
165.36022931488696	1.0008011710597202	feedback loss	999	999
166.3610425608931	5.316250942181796	ITI	999	999
171.68320749758277	0.5992279296042398	fixation_1	999	999
172.28256130823866	3.0066949400352314	face	1.5499483646126464	2
175.28930092556402	0.5992279296042398	fixation_2	999	999
175.83559873956256	1.0010052372235805	feedback win	999	999
176.83661574975122	5.316631302237511	ITI	999	999
182.1592211193638	0.5986160328611732	fixation_1	999	999
182.75795548642054	3.004992980044335	face	1.8011882327264175	2
185.76299465296324	0.5986160328611732	fixation_2	999	999
186.310830510105	1.0009472776437178	feedback loss	999	999
187.31179016444366	3.2174442765535787	ITI	999	999
190.53516141604632	0.5962728945305571	fixation_1	999	999
191.13156230468303	3.005686684162356	face	1.5496618871111423	2
194.13729819410946	0.5962728945305571	fixation_2	999	999
194.68451219284907	1.0007996616186574	feedback loss	999	999
195.68532423127908	1.1179004368605092	ITI	999	999
196.80909519304987	0.5941534438170493	fixation_1	999	999
197.40337300859392	3.0058681098744273	face	1.5504805666860193	2
200.40928760683164	0.5941534438170493	fixation_2	999	999
200.95646447513718	1.0004974867915735	feedback loss	999	999
201.9569743387401	1.1180993712041527	ITI	999	999
203.08092793356627	0.5944251295877621	fixation_1	999	999
203.6754870947916	3.0057346819667146	face	1.5507459131767973	2
206.68126826523803	0.5944251295877621	fixation_2	999	999
207.2284454354085	1.0005817093187943	feedback win	999	999
208.2290389178088	5.3155267488909885	ITI	999	999
213.55031846102793	0.6002229030709714	fixation_1	999	999
214.1506726788357	3.0055918960133567	face	1.550512867164798	3
217.1563113651937	0.6002229030709714	fixation_2	999	999
217.70324039575644	1.0008790543070063	feedback loss	999	999
218.70412458188366	5.316680507501587	ITI	999	999
224.02679032599553	0.5992400044342503	fixation_1	999	999
224.6261885119602	3.0059785953490064	face	1.5509548092959449	3
227.63221269019414	0.5992400044342503	fixation_2	999	999
228.1787043067161	1.0010420656763017	feedback win	999	999
229.17975844733883	3.216411266941577	ITI	999	999
232.40214468725026	0.5974275587359443	fixation_1	999	999
232.99970295699313	3.0053570388117805	face	1.3004512096522376	2
236.00511282356456	0.5974275587359443	fixation_2	999	999
236.55213784973603	1.0007610219763592	feedback loss	999	999
237.55291124852374	1.117815610487014	ITI	999	999
238.67671149189118	0.5943131346721202	fixation_1	999	999
239.27115624316502	3.0058472806122154	face	1.549856293364428	2
242.27705363475252	0.5943131346721202	fixation_2	999	999
242.82425676600542	1.0009104490745813	feedback win	999	999
243.8251702338457	3.217079311958514	ITI	999	999
247.04822451877408	0.5964648856315762	fixation_1	999	999
247.64481709664688	3.0061313431942835	face	1.3003075181040913	2
250.65099402272608	0.5964648856315762	fixation_2	999	999
251.19789648836013	1.00045884703286	feedback loss	999	999
252.19836771220434	1.1175339629407972	ITI	999	999
253.32199679361656	0.5947239839006215	fixation_1	999	999
253.91685903526377	3.0052598357433453	face	1.5500663970597088	2
256.92216747254133	0.5947239839006215	fixation_2	999	999
257.4696250827983	1.0003731150645763	feedback loss	999	999
258.47001087653916	1.1181280490709469	ITI	999	999
259.5943258134648	0.5940296759363264	fixation_1	999	999
260.1884895210387	3.005903429002501	face	1.3006036553997546	2
263.1944400421344	0.5940296759363264	fixation_2	999	999
263.74127036030404	1.00090803403873	feedback loss	999	999
264.7421907711541	1.1176094312686473	ITI	999	999
265.8659303380409	0.5944136583711952	fixation_1	999	999
266.460482858005	3.005424658418633	face	1.299588758382015	2
269.4659567216877	0.5944136583711952	fixation_2	999	999
270.0132307931781	1.0005328059196472	feedback win	999	999
271.0137759759091	5.317271574866027	ITI	999	999
276.33728726638947	0.5983835905790329	fixation_1	999	999
276.9358121335972	3.0060552711365744	face	1.300762742641382	3
279.94191449694335	0.5983835905790329	fixation_2	999	999
280.48863070702646	1.0006991379195824	feedback loss	999	999
281.48934191989247	1.1167276600608602	ITI	999	999
282.6121930744266	0.5951680390862748	fixation_1	999	999
283.2074984657811	3.00654189044144	face	1.3007428189739585	3
286.21408593910746	0.5951680390862748	fixation_2	999	999
286.7600707107922	1.001004331628792	feedback loss	999	999
287.761087117251	3.216508168261498	ITI	999	999
290.983795153792	0.5970305957598612	fixation_1	999	999
291.5809721580008	3.0049742638366297	face	1.3000687365420163	3
294.5859956271015	0.5970305957598612	fixation_2	999	999
295.1338879344985	1.000766153796576	feedback win	999	999
296.1346661632415	5.316864951979369	ITI	999	999
301.4577478884021	0.6483939901227131	fixation_1	999	999
302.1062783251982	3.0067199955228716	face	1.299899083795026	2
305.1130448092008	0.6483939901227131	fixation_2	999	999
305.65884483465925	1.0011872665490955	feedback loss	999	999
306.66004417615477	5.315948163624853	ITI	999	999
311.9823262396967	0.5991992516210303	fixation_1	999	999
312.5816715977853	3.0053144748089835	face	1.3002471434883773	3
315.5870325609576	0.5991992516210303	fixation_2	999	999
316.1342842938611	1.0008512819185853	feedback win	999	999
317.1351473488612	1.1175620370777324	ITI	999	999
318.2589874394471	0.594446562579833	fixation_1	999	999
318.8535782973049	3.0054174134274945	face	1.046361358370632	2
321.8590421992121	0.594446562579833	fixation_2	999	999
322.4062815551879	1.0005032223416492	feedback loss	999	999
323.40679685247596	1.1184374690055847	ITI	999	999
324.5316835369449	0.5932846532668918	fixation_1	999	999
325.1251094667241	3.0058587518287823	face	1.3013332826085389	2
328.1310150088975	0.5932846532668918	fixation_2	999	999
328.6782447049627	1.000687063089572	feedback loss	999	999
329.6789347867016	5.316008538240567	ITI	999	999
335.0013898235047	0.5991373675642535	fixation_1	999	999
335.60068205196876	3.004251881618984	face	1.3002685764804482	3
338.60497830901295	0.5991373675642535	fixation_2	999	999
339.1536585049471	1.000466997618787	feedback loss	999	999
340.15413787937723	1.1168097695335746	ITI	999	999
341.2775659132749	0.5946780991507694	fixation_1	999	999
341.87241577822715	3.005466014961712	face	1.5505273571470752	3
344.877926470479	0.5946780991507694	fixation_2	999	999
345.4254151736386	1.001006746548228	feedback loss	999	999
346.42643399501685	3.216467415448278	ITI	999	999
349.6493509277934	0.596546089509502	fixation_1	999	999
350.24605912307743	3.0057920379331335	face	1.299429671256803	2
353.2519027811941	0.596546089509502	fixation_2	999	999
353.79888131900225	1.0007139296503738	feedback win	999	999
354.799607625464	7.417279997258447	ITI	999	999
362.2234702659771	0.5992077040718868	fixation_1	999	999
362.8228433964541	3.005034336587414	face	1.3010099766543135	2
365.8279230139451	0.5992077040718868	fixation_2	999	999
366.37574287189636	1.000877243001014	feedback loss	999	999
367.3766321898438	1.117260767845437	ITI	999	999
368.5005888034357	0.5941042385529727	fixation_1	999	999
369.0948506196728	3.0057787555269897	face	1.5508425125153735	2
372.1006767691579	0.5941042385529727	fixation_2	999	999
372.64771356841084	1.0008244152413681	feedback win	999	999
373.64854130428284	1.1173440848942846	ITI	999	999
374.7724867486395	0.5941724617732689	fixation_1	999	999
375.36682101443876	3.005043090786785	face	1.3000578690553084	2
378.3719111974351	0.5941724617732689	fixation_2	999	999
378.91934012970887	1.0010749698849395	feedback loss	999	999
379.92042747640517	1.1170853796647862	ITI	999	999
381.04414138407446	0.59408703178633	fixation_1	999	999
381.63839082361665	3.005307833547704	face	1.5504078153753653	2
384.64374423993286	0.59408703178633	fixation_2	999	999
385.1912244906416	1.0007890961132944	feedback loss	999	999
386.19202566170134	3.2168121543945745	ITI	999	999
389.41577757522464	0.5961488245520741	fixation_1	999	999
390.0120752231451	3.005427375319414	face	1.8005829772446305	3
393.0175493886927	0.5961488245520741	fixation_2	999	999
393.5649834529031	1.000615217257291	feedback loss	999	999
394.56561104697175	5.316676281276159	ITI	999	999
399.8890429447638	0.5981375641422346	fixation_1	999	999
400.48733567167073	3.0054684299975634	face	1.300511886132881	2
403.49284998641815	0.5981375641422346	fixation_2	999	999
404.0401319065131	1.0008920348482206	feedback loss	999	999
405.04103601619136	5.317382060457021	ITI	999	999
410.36514290224295	0.5972784335026518	fixation_1	999	999
410.9625653291587	3.005817998899147	face	1.5503003485500813	2
413.9684295146726	0.5972784335026518	fixation_2	999	999
414.5155170285143	1.0007362683536485	feedback loss	999	999
415.51626537181437	5.316527759772725	ITI	999	999
420.8395931235282	0.5979667039355263	fixation_1	999	999
421.43771831085905	3.0060407812707126	face	1.3007597238756716	3
424.4438049767632	0.5979667039355263	fixation_2	999	999
424.9908897738205	1.000729627092369	feedback win	999	999
425.99163177772425	3.216319799539633	ITI	999	999
429.21478900138754	0.5967021578690037	fixation_1	999	999
429.81167167937383	3.0050560713279992	face	1.550106847891584	3
432.81677333358675	0.5967021578690037	fixation_2	999	999
433.36453130748123	1.0005047316662967	feedback win	999	999
434.36504811409395	1.1176966725615785	ITI	999	999
435.48956198536325	0.593682219972834	fixation_1	999	999
436.08340570749715	3.005332888918929	face	1.3003319697454572	2
439.0887832735898	0.593682219972834	fixation_2	999	999
439.6359015785856	1.0010909690754488	feedback loss	999	999
440.6369958682917	3.2172522853361443	ITI	999	999
443.8611178781139	0.5954665916506201	fixation_1	999	999
444.4567595560802	3.006431404966861	face	1.3009634881746024	2
447.46324016631115	0.5954665916506201	fixation_2	999	999
448.00958809128497	1.0011700598988682	feedback win	999	999
449.0107699241489	3.215945477015339	ITI	999	999
452.233755985857	0.5964259440079331	fixation_1	999	999
452.83034343190957	3.0051831599557772	face	1.3003687983145937	2
455.83557398593985	0.5964259440079331	fixation_2	999	999
456.38319973950274	1.0007516638142988	feedback win	999	999
457.3839640819933	1.117745877825655	ITI	999	999
458.50879612739664	0.5933625365141779	fixation_1	999	999
459.10232409031596	3.005411376012489	face	1.3000928863184527	3
462.1077816528268	0.5933625365141779	fixation_2	999	999
462.6551970009459	1.0009056190028787	feedback win	999	999
463.6561146948952	1.1172963889548555	ITI	999	999
464.7807861438487	0.5932662390405312	fixation_1	999	999
465.37421479052864	3.0052987773669884	face	1.2994613680057228	2
468.3795594526455	0.5932662390405312	fixation_2	999	999
468.92699562979396	1.0005252591799945	feedback win	999	999
469.92753296380397	1.118151897098869	ITI	999	999
471.05279729142785	0.5928399943513796	fixation_1	999	999
471.6458247489063	3.0058264513500035	face	1.3012261176481843	2
474.6517022168264	0.5928399943513796	fixation_2	999	999
475.1989334222162	1.0004887324757874	feedback win	999	999
476.19943453150336	5.317247123224661	ITI	999	999
481.5237910664873	0.5971323269186541	fixation_1	999	999
482.12109304603655	3.005458770086989	face	1.2995558542897925	3
485.1266025308287	0.5971323269186541	fixation_2	999	999
485.673926411313	1.0010541406227276	feedback win	999	999
486.6749929286307	5.31663824536372	ITI	999	999
491.9988827679772	0.5975099700735882	fixation_1	999	999
492.5965599757619	3.0059004102367908	face	1.2999799858080223	2
495.60250627074856	0.5975099700735882	fixation_2	999	999
496.14906822366174	1.001335486304015	feedback loss	999	999
497.1504160867771	5.316500893095508	ITI	999	999
