TrialNumber,nTrial,Block,Endowment,ITI,ISI,L_Option,R_Option,ran,order,cue_Onset,endowment_onset,endowment_offset,ISI_onset,ISI_offset,decision_onset,resp,rt,resp_onset,decision_offset,trialDuration,ITIonset,ITIoffset
1,1,1,25,1,3,8,11,1.0,0.0,5.0034337,6.0020814,6.0183387,6.0186725,9.035135,9.035321,2.0,1.3668436,10.402164,12.552346,3.5177884,12.55327,13.557668
2,2,2,17,5,1.5,1,3,1.0,1.0,14.552617,15.551698,15.568225,15.5685215,17.085144,17.085297,2.0,0.7333707,17.818668,20.602678,3.518047,20.603474,25.607658
3,3,2,19,1,4.5,1,9,1.0,2.0,26.602848,27.601624,27.61844,27.618732,32.135223,32.13538,2.0,1.4499208,33.5853,35.652634,3.517914,35.653427,36.657803
4,4,1,21,1,3,9,1,1.0,3.0,37.652653,38.651775,38.668385,38.66867,41.685074,41.68523,2.0,1.600264,43.285496,45.201714,3.5171394,45.202503,46.207058
5,5,3,19,1,3,0,4,1.0,4.0,47.20269,48.201668,48.218357,48.218605,51.235096,51.235287,2.0,3.0169952,54.25228,54.75273,3.51812,54.753574,55.757698
6,6,3,17,5,1.5,3,0,1.0,5.0,56.75267,57.75168,57.768406,57.768654,59.284874,59.28507,999.0,999.0,999.0,62.285088,3.5169897,62.80224,67.80661
7,7,1,17,8,3,1,5,1.0,6.0,68.8027,69.80171,69.8185,69.81882,72.83532,72.83547,2.0,1.9999442,74.83542,76.35253,3.5177276,76.35333,84.35775
8,8,2,15,1,4.5,7,1,1.0,7.0,85.35268,86.351715,86.36822,86.368484,90.88482,90.88497,3.0,1.7006935,92.58567,94.401695,3.5173805,94.40249,95.40697
9,9,1,15,1,3,3,5,1.0,8.0,96.40278,97.40173,97.418495,97.4188,100.43509,100.43524,2.0,1.1170151,101.55225,103.95132,3.5167465,103.95212,104.956764
10,10,3,25,1,1.5,0,11,1.0,9.0,105.95253,106.95165,106.96863,106.96887,108.48507,108.48527,3.0,1.8336191,110.318886,112.00219,3.5175877,112.00298,113.00742
11,11,1,21,1,1.5,9,7,1.0,10.0,114.00317,115.00199,115.01842,115.01875,116.535,116.53516,3.0,1.3331988,117.868355,120.052055,3.517584,120.052895,121.05748
12,12,3,15,1,3,7,0,1.0,11.0,122.05263,123.05174,123.06873,123.068954,126.08578,126.08596,2.0,1.3828275,127.46879,129.60304,3.5177627,129.60385,130.60864
13,13,3,25,1,1.5,8,0,1.0,12.0,131.60272,132.60176,132.61859,132.61885,134.1351,134.13533,3.0,2.533596,136.66891,137.65288,3.5182183,137.6537,138.65805
14,14,3,19,3,3,0,4,1.0,13.0,139.6526,140.65173,140.66849,140.66873,143.68481,143.685,2.0,2.0005403,145.68555,147.2018,3.5174663,147.2026,150.20695
15,15,3,17,3,1.5,5,0,1.0,14.0,151.20277,152.20152,152.21837,152.2186,153.73497,153.73517,3.0,1.9669387,155.7021,157.25255,3.5180473,157.25334,160.25859
16,16,2,15,1,1.5,3,1,1.0,15.0,161.25294,162.25201,162.26842,162.2687,163.78499,163.78514,3.0,1.1004585,164.88559,167.30174,3.51726,167.30254,168.30705
17,17,3,23,1,3,1,0,1.0,16.0,169.30269,170.3015,170.31848,170.31873,173.33482,173.335,3.0,2.1338913,175.4689,176.85245,3.5180986,176.85324,177.85773
18,18,2,19,1,1.5,9,4,1.0,17.0,178.85275,179.85167,179.86856,179.86887,181.38512,181.38527,3.0,2.833342,184.21861,184.90231,3.5177171,184.90312,185.90755
19,19,1,19,5,4.5,6,1,1.0,18.0,186.90286,187.90202,187.91853,187.91881,192.43507,192.43523,2.0,0.9002144,193.33545,195.95181,3.5172555,195.95262,200.95702
20,20,3,17,1,1.5,0,5,1.0,19.0,201.95316,202.95183,202.96855,202.9688,204.48509,204.48529,2.0,2.2500753,206.73537,208.00186,3.5172517,208.00267,209.00688
21,21,2,19,3,1.5,6,1,1.0,20.0,210.0031,211.00192,211.01834,211.0187,212.53587,212.53603,3.0,0.816211,213.35223,216.05289,3.5175133,216.05367,219.05788
22,22,3,19,3,1.5,1,0,1.0,21.0,220.05278,221.05176,221.06863,221.06888,222.58516,222.58536,3.0,2.0168238,224.60219,226.1026,3.5179315,226.10342,229.10875
23,23,1,23,8,1.5,4,7,1.0,22.0,230.10287,231.10184,231.11832,231.11859,232.63536,232.63553,2.0,2.3999205,235.03545,236.15309,3.5182471,236.15395,244.15817
24,24,1,21,3,1.5,7,4,1.0,23.0,245.15294,246.15208,246.16847,246.16875,247.68591,247.68608,3.0,2.1493602,249.83543,251.20285,3.517445,251.20366,254.20818
25,25,2,17,5,1.5,1,5,1.0,24.0,255.2027,256.202,256.2184,256.2187,257.73517,257.73532,2.0,2.8336124,260.56894,261.2529,3.518224,261.2537,266.2589
26,26,1,25,3,1.5,2,5,1.0,25.0,267.25293,268.2519,268.2684,268.2687,269.7852,269.78534,3.0,1.9835817,271.76892,273.30228,3.517584,273.30307,276.30753
27,27,2,23,1,1.5,1,10,1.0,26.0,277.30273,278.3019,278.31854,278.31882,279.83594,279.83612,2.0,2.0997071,281.93582,283.3529,3.517479,283.35373,284.35822
28,28,3,23,3,4.5,0,10,1.0,27.0,285.35287,286.35196,286.3687,286.369,290.88498,290.88516,3.0,2.900545,293.7857,294.40155,3.5170739,294.4024,297.40686
29,29,2,15,1,3,7,5,1.0,28.0,298.40283,299.40234,299.41837,299.4186,302.43597,302.43613,3.0,2.14919,304.5853,305.95297,3.5175636,305.95386,306.9579
30,30,2,25,3,4.5,5,2,1.0,29.0,307.9532,308.952,308.96863,308.9689,313.485,313.48514,3.0,2.6338143,316.11896,317.00217,3.517689,317.00296,320.0075
31,31,2,19,3,1.5,4,1,1.0,30.0,321.00317,322.00217,322.01865,322.01895,323.53537,323.53552,3.0,2.8501275,326.38565,327.05194,3.517081,327.0528,330.05722
32,32,1,25,1,4.5,8,11,1.0,31.0,331.053,332.05194,332.06876,332.06906,336.58527,336.58542,2.0,1.4836954,338.0691,340.10223,3.517481,340.10303,341.10745
33,33,1,23,1,1.5,10,1,1.0,32.0,342.10303,343.10187,343.11896,343.11926,344.63602,344.63617,2.0,3.0164146,347.6526,348.15317,3.5176616,348.15396,349.15884
34,34,2,25,8,1.5,5,11,1.0,33.0,350.15295,351.15216,351.1687,351.16898,352.68604,352.6862,2.0,2.9994824,355.68567,356.203,3.5174935,356.2038,364.20828
35,35,3,19,3,1.5,9,0,1.0,34.0,365.20294,366.20197,366.21866,366.2189,367.73532,367.7355,2.0,2.3833735,370.1189,371.25244,3.5175912,371.25323,374.25766
36,36,1,15,5,3,1,7,1.0,35.0,375.25287,376.2518,376.26855,376.26883,379.28522,379.28537,2.0,1.5503639,380.83572,382.8019,3.5172052,382.8027,387.80804
