TrialNumber,nTrial,Block,Endowment,ITI,ISI,L_Option,R_Option,ran,order,cue_Onset,endowment_onset,endowment_offset,ISI_onset,ISI_offset,decision_onset,resp,rt,resp_onset,decision_offset,trialDuration,ITIonset,ITIoffset
1,1,2,23,5,1.5,1,7,1.0,0.0,4.997308,5.9963193,6.0131955,6.013573,7.5305963,7.5307956,2.0,0.84931564,8.380112,11.04749,3.5174785,11.048439,16.053043
2,2,1,23,5,1.5,4,10,1.0,1.0,17.0476,18.046528,18.063208,18.063488,19.579525,19.579687,3.0,1.233422,20.813108,23.097517,3.5185099,23.098331,28.102901
3,3,2,25,1,3,11,5,1.0,2.0,29.097479,30.096182,30.11297,30.113245,33.12947,33.129627,3.0,1.3999844,34.529613,36.647236,3.5182614,36.64802,37.65233
4,4,2,23,1,1.5,7,4,1.0,3.0,38.64734,39.64619,39.662888,39.66317,41.179962,41.18012,3.0,0.9166606,42.09678,44.697105,3.5176513,44.697906,45.702606
5,5,1,17,3,1.5,5,3,1.0,4.0,46.69739,47.69611,47.712906,47.713184,49.229527,49.229687,3.0,1.8670187,51.096703,52.745384,3.5163615,52.74618,55.7513
6,6,3,19,1,1.5,0,1,1.0,5.0,56.74711,57.746143,57.762917,57.763184,59.279823,59.28002,2.0,2.5998948,61.879917,62.796688,3.5173326,62.797497,63.80192
7,7,1,19,1,1.5,6,9,1.0,6.0,64.797226,65.79602,65.812935,65.81322,67.329315,67.329475,3.0,0.916491,68.24597,70.84698,3.5181775,70.84779,71.8523
8,8,1,21,1,4.5,1,9,1.0,7.0,72.84719,73.846,73.862854,73.86314,78.37948,78.37964,3.0,2.4501848,80.82982,81.89602,3.5170507,81.89683,82.90125
9,9,2,23,1,3,4,1,1.0,8.0,83.89705,84.896,84.91284,84.91318,87.9292,87.92936,3.0,1.0003605,88.92972,91.44605,3.5173678,91.44686,92.45122
10,10,2,25,1,3,8,2,1.0,9.0,93.446945,94.446144,94.46265,94.46297,97.479095,97.47925,3.0,2.4170058,99.896255,100.995735,3.5171638,100.99655,102.00097
11,11,3,25,3,1.5,8,0,1.0,10.0,102.99706,103.99589,104.012856,104.01313,105.52914,105.529335,2.0,1.3837372,106.91307,109.04633,3.5176644,109.047134,112.05167
12,12,2,17,8,1.5,1,8,1.0,11.0,113.04696,114.04595,114.06267,114.062996,115.57937,115.57953,2.0,2.050163,117.629684,119.09595,3.5170836,119.09674,127.10119
13,13,1,17,1,3,5,8,1.0,12.0,128.0969,129.09578,129.11256,129.11287,132.13,132.13017,2.0,1.1827534,133.31291,135.64699,3.5175028,135.64783,136.65225
14,14,3,23,1,4.5,1,0,1.0,13.0,137.64671,138.64578,138.66254,138.6628,143.17996,143.18016,999.0,999.0,999.0,146.19574,3.532731,146.71309,147.71773
15,15,2,21,1,3,9,1,1.0,14.0,148.71333,149.71243,149.72917,149.72949,152.74547,152.74564,3.0,1.0838366,153.82947,156.26222,3.5172527,156.26302,157.2674
16,16,1,15,5,1.5,7,5,1.0,15.0,158.2637,159.26237,159.27904,159.27933,160.79564,160.79579,3.0,1.2502506,162.04605,164.31233,3.5171998,164.31313,169.31764
17,17,1,25,1,1.5,11,5,1.0,16.0,170.31361,171.31235,171.32909,171.3294,172.84566,172.84583,2.0,1.5003113,174.34615,176.36223,3.5170836,176.36305,177.36778
18,18,3,19,5,3,0,9,1.0,17.0,178.3634,179.36227,179.37906,179.37932,182.3954,182.3956,3.0,2.2170572,184.61266,185.91275,3.5178273,185.91356,190.91803
19,19,3,17,8,1.5,0,1,1.0,18.0,191.9133,192.91217,192.92891,192.92912,194.44543,194.44563,2.0,1.1837505,195.62938,197.96254,3.5175662,197.96333,205.96866
20,20,2,15,1,1.5,7,5,1.0,19.0,206.96312,207.96217,207.9789,207.97919,209.49544,209.4956,3.0,1.7833447,211.27895,213.01253,3.5175982,213.01334,214.01761
21,21,3,23,1,4.5,10,0,1.0,20.0,215.01344,216.01227,216.02882,216.02907,220.5454,220.54558,2.0,1.3667321,221.91231,224.06276,3.5178406,224.06355,225.06804
22,22,2,15,3,3,1,3,1.0,21.0,226.06313,227.0621,227.07855,227.07883,230.09512,230.09528,2.0,1.467111,231.5624,233.61177,3.5171633,233.6126,236.61703
23,23,1,23,1,3,7,1,1.0,22.0,237.61307,238.61192,238.62881,238.62912,241.64525,241.6454,2.0,2.3836854,244.0291,245.16226,3.5175152,245.16306,246.16747
24,24,3,23,1,1.5,4,0,1.0,23.0,247.16315,248.16208,248.17908,248.17932,249.69518,249.69536,3.0,2.7170365,252.4124,253.21172,3.517014,253.21251,254.21698
25,25,1,19,8,1.5,9,1,1.0,24.0,255.21294,256.21198,256.22858,256.22885,257.7454,257.74557,2.0,1.8667841,259.61234,261.2624,3.5174696,261.26318,269.2677
26,26,1,15,3,1.5,1,5,1.0,25.0,270.26306,271.26184,271.27856,271.27884,272.79523,272.7954,3.0,1.5667826,274.36218,276.3125,3.5177717,276.31332,279.3176
27,27,3,23,1,1.5,0,4,1.0,26.0,280.3128,281.31186,281.3285,281.32874,282.84482,282.845,3.0,2.0338764,284.8789,286.36197,3.517606,286.36276,287.3677
28,28,3,23,1,3,0,7,1.0,27.0,288.36282,289.3618,289.3784,289.37863,292.39508,292.39526,3.0,1.466976,293.86224,295.91266,3.5180614,295.91345,296.91776
29,29,3,19,3,1.5,4,0,1.0,28.0,297.91278,298.91183,298.92828,298.92853,300.44492,300.4451,3.0,1.8668064,302.31192,303.96216,3.5177326,303.96298,306.9677
30,30,2,15,3,1.5,3,5,1.0,29.0,307.96265,308.96167,308.9788,308.9791,310.49518,310.49533,2.0,0.84991217,311.34525,314.01315,3.5184822,314.01398,317.01865
31,31,2,25,3,4.5,8,5,1.0,30.0,318.01273,319.01154,319.02823,319.0285,323.54507,323.54526,3.0,2.0000825,325.54532,327.06165,3.5170798,327.06247,330.06693
32,32,3,25,3,4.5,11,0,1.0,31.0,331.0626,332.06158,332.07822,332.0785,336.5948,336.59497,2.0,1.633615,338.22858,340.1113,3.5170405,340.11218,343.1177
33,33,1,19,3,4.5,1,4,1.0,32.0,344.11267,345.11157,345.12827,345.12857,349.6449,349.64505,3.0,1.9335921,351.57864,353.16196,3.5175807,353.16275,356.1672
34,34,2,17,1,3,8,1,1.0,33.0,357.16245,358.16147,358.17847,358.1788,361.1947,361.19485,3.0,1.5002804,362.69513,364.71173,3.5175536,364.71255,365.7169
35,35,3,19,3,1.5,6,0,1.0,34.0,366.7124,367.71146,367.72787,367.7281,369.24487,369.24527,2.0,1.6999487,370.94522,372.76242,3.517786,372.76318,375.76785
36,36,1,19,5,1.5,1,9,1.0,35.0,376.76248,377.76135,377.77814,377.77844,379.2947,379.29486,3.0,2.3668332,381.6617,382.81284,3.5186467,382.8137,387.8188
