onset	duration	trial_type	rt	resp	gender
0.6109297357033938	3.0053295684047043	decision	1.3007367815589532	left	o
4.163824683055282	1.0009339951211587	win	n/a	n/a	n/a
11.08583155903034	3.00634084304329	decision	1.0498211252270266	left	o
14.63881284208037	1.0006508382502943	loss	n/a	n/a	n/a
17.358117109164596	3.0064386499579996	decision	1.30070116056595	right	o
20.91081583907362	1.0005638988222927	win	n/a	n/a	n/a
23.629547755001113	3.0050947110867128	decision	1.0500635291682556	left	o
27.182420665514655	1.0011767010437325	win	n/a	n/a	n/a
32.00261603167746	3.0059628980234265	decision	1.3019340099999681	right	o
35.55605797294993	1.0009934641420841	loss	n/a	n/a	n/a
42.47835555265192	3.0062457530293614	decision	1.0459758664947003	left	o
46.03119072911795	1.0009016947587952	loss	n/a	n/a	n/a
50.852375635062344	3.006205302081071	decision	1.3011654412839562	right	o
54.40499346295837	1.0009041096782312	win	n/a	n/a	n/a
59.22608629765455	3.006241526803933	decision	1.3004650957882404	left	o
62.7784861731343	1.0008699981262907	loss	n/a	n/a	n/a
65.49758335540537	3.0059420687612146	decision	1.3007772325072438	right	o
69.05012360191904	1.000837093917653	win	n/a	n/a	n/a
71.76955073140562	3.006333899917081	decision	1.2999516098061576	left	o
75.32203603698872	1.0009140715701506	win	n/a	n/a	n/a
78.04125125159044	3.005806829663925	decision	1.2995000077644363	right	o
81.59383677900769	1.001412162091583	loss	n/a	n/a	n/a
86.41458366729785	3.0057322669308633	decision	1.033894907683134	left	o
89.96767905820161	1.0005931805353612	loss	n/a	n/a	n/a
92.6868948766496	3.0055650293361396	decision	1.3005755812628195	right	o
96.23931256262586	1.000953918788582	win	n/a	n/a	n/a
103.16177919134498	3.00567460921593	decision	1.046658401377499	left	o
106.71437588811386	1.0010013127466664	win	n/a	n/a	n/a
109.43349812587257	3.0059852364938706	decision	1.0459245479432866	right	o
112.98660528985783	1.0006946098292246	win	n/a	n/a	n/a
119.9090369011974	3.005399602930993	decision	1.0453857047250494	left	o
123.46175072470214	1.000500203575939	win	n/a	n/a	n/a
128.28295827121474	3.005114031024277	decision	1.3000343228923157	left	o
131.83517672098242	1.0007537769852206	win	n/a	n/a	n/a
136.6563465333311	3.0060278007294983	decision	1.2996343411505222	right	o
140.2089344757842	1.0003764355788007	win	n/a	n/a	n/a
145.02965751593	3.0054035272914916	decision	1.0452818603953347	left	o
148.5824250727892	1.0006143116625026	win	n/a	n/a	n/a
161.8098553091986	3.0054364315001294	decision	1.050474982126616	left	o
165.36317831242923	1.0003236079355702	loss	n/a	n/a	n/a
172.2859208531445	3.0058264513500035	decision	1.2999371198238805	left	o
175.83834125602152	1.0007362682372332	win	n/a	n/a	n/a
182.76078403671272	3.0055058621801436	decision	1.0332947841379791	left	o
186.31339371402282	1.0007048734696582	loss	n/a	n/a	n/a
191.13411554670893	3.0051816506311297	decision	1.300102848210372	right	o
194.68746209610254	1.000379454344511	loss	n/a	n/a	n/a
197.42248911818024	3.0057663787156343	decision	1.3007639501011	right	o
200.975536813261	1.0007281177677214	loss	n/a	n/a	n/a
203.69452018942684	3.005919730174355	decision	1.3000708495965227	left	o
207.24728684069123	1.000787284807302	win	n/a	n/a	n/a
214.18672658246942	3.0052544019417837	decision	1.0463245298014954	left	o
217.73961639788467	1.0009219201747328	loss	n/a	n/a	n/a
224.661789907841	3.0053494919557124	decision	1.3003419315209612	right	o
228.21434283291455	1.0009738424560055	win	n/a	n/a	n/a
233.03555913374294	3.005586160463281	decision	1.045656786649488	left	o
236.5881002858514	1.001124778878875	loss	n/a	n/a	n/a
239.30768650246318	3.0051798393251374	decision	1.0452395981410518	right	o
242.86015278997365	1.0007024585502222	win	n/a	n/a	n/a
247.68080760689918	3.00527583505027	decision	1.0463839988224208	left	o
251.2336741781328	1.0007386833894998	loss	n/a	n/a	n/a
253.95270011841785	3.0064718559151515	decision	1.0458901345264167	right	o
257.5053282099543	1.001354202395305	loss	n/a	n/a	n/a
260.2247453776654	3.0053727361373603	decision	1.299377447227016	left	o
263.7769514506217	1.0011582868173718	loss	n/a	n/a	n/a
266.51270387368277	3.0056543837999925	decision	1.3004605676978827	right	o
270.0662176606711	1.0003716057399288	win	n/a	n/a	n/a
277.0049401521683	3.005145425791852	decision	1.0461497453507036	right	o
280.5576289201854	1.0011290051043034	loss	n/a	n/a	n/a
283.27667961397674	3.0062689972110093	decision	1.8007782890927047	left	o
286.829338194686	1.00112176022958	loss	n/a	n/a	n/a
291.6504548774101	3.0057980752317235	decision	1.033624731353484	left	o
295.20310953375883	1.0009007890475914	win	n/a	n/a	n/a
302.1748572366778	3.005184971145354	decision	1.0502322762040421	left	o
305.7284181158757	1.000685553648509	loss	n/a	n/a	n/a
312.65096051467117	3.005849393783137	decision	1.3007666670018807	right	o
316.2037787862355	1.0007456263992935	win	n/a	n/a	n/a
318.9229484180687	3.00574071938172	decision	1.3010317113948986	left	o
322.4763109666528	1.0001889725681394	loss	n/a	n/a	n/a
325.19465980574023	3.005320210242644	decision	1.0461008418351412	right	o
328.7475707522826	1.000629707123153	loss	n/a	n/a	n/a
335.67019435495604	3.0056504593230784	decision	1.0448163721011952	left	o
339.22306122793816	1.0006131042027846	loss	n/a	n/a	n/a
341.94150455330964	3.0054808066925034	decision	1.3004403421655297	right	o
345.4943439558847	1.0009493906982243	loss	n/a	n/a	n/a
350.31584763980936	3.006134965689853	decision	1.0489106761524454	left	o
353.86819136701524	1.0006517438450828	win	n/a	n/a	n/a
362.8926153102657	3.005285494844429	decision	1.3003380071604624	left	o
366.445139557356	1.0009092416148633	loss	n/a	n/a	n/a
369.16424338088837	3.0052236109040678	decision	1.3013447538251057	right	o
372.71673049766105	1.001103647868149	win	n/a	n/a	n/a
375.43626147159375	3.006668677087873	decision	1.2997146394336596	left	o
378.988700892427	1.000914977164939	loss	n/a	n/a	n/a
381.7084440829931	3.005336511414498	decision	1.2994462742935866	right	o
385.2605677447282	1.0007097034249455	loss	n/a	n/a	n/a
390.08145017386414	3.0054388464195654	decision	1.0464295815909281	left	o
393.6343695728574	1.0007036660099402	loss	n/a	n/a	n/a
400.55680178804323	3.0053488882258534	decision	1.0454599654767662	right	o
404.1094042203622	1.0006230659782887	loss	n/a	n/a	n/a
411.0317591560306	3.0060797228943557	decision	1.0458557209931314	left	o
414.5848856399534	1.0009131658589467	loss	n/a	n/a	n/a
421.5073697773041	3.0054346200777218	decision	1.0324284085072577	right	o
425.0600256411126	1.0009038078133017	win	n/a	n/a	n/a
429.8808184140362	3.005981312249787	decision	1.0450059483991936	left	o
433.43356725468766	1.0009303727420047	win	n/a	n/a	n/a
436.16942261648364	3.0051402939716354	decision	1.3002459360286593	right	o
439.72206187737174	1.0008277357555926	loss	n/a	n/a	n/a
444.54276710702106	3.005980104790069	decision	1.3009420551825315	left	o
448.0961492774077	1.0002894962672144	win	n/a	n/a	n/a
452.916471128352	3.0052320634713396	decision	1.046270192717202	right	o
456.46925619384274	1.0009925585472956	win	n/a	n/a	n/a
459.2050052963896	3.005736795021221	decision	1.3007132353959605	right	o
462.75749905442353	1.0011591924121603	win	n/a	n/a	n/a
465.4938301680377	3.005995802115649	decision	1.5498898013029248	left	o
469.04629253130406	1.0007984541589394	win	n/a	n/a	n/a
471.78227920783684	3.005432205158286	decision	1.3005680344067514	right	o
475.33456920157187	1.000917392084375	win	n/a	n/a	n/a
482.2570726587437	3.005432808888145	decision	1.3004832081496716	right	o
485.8099757565651	1.0008727149106562	win	n/a	n/a	n/a
492.7496859765379	3.005591896129772	decision	1.300183750106953	left	o
496.3020073650405	1.0009596544550732	loss	n/a	n/a	n/a
