onset	duration	trial_type	rt	resp	gender
0.722814817563631	3.00792932283366	decision	2.06850636695162	right	B
4.27555083693005	1.00070819628309	loss	NaN	n/a	n/a
11.3314117044501	3.00721780597814	decision	2.31764474327792	left	B
14.8844562390004	1.00054397684289	win	NaN	n/a	n/a
21.9404647228657	3.00722203220357	decision	1.79987297145999	right	B
25.4931119913235	1.00081083341502	loss	NaN	n/a	n/a
32.5490513460536	3.00632124036201	decision	2.81795793748461	left	B
36.1017764979624	1.00085158640286	loss	NaN	n/a	n/a
38.9209422331187	3.00674084512866	decision	1.80046705936547	right	B
42.4738174163795	1.00076826917939	loss	NaN	n/a	n/a
45.2593809591781	3.00667081039865	decision	2.06746731686871	right	B
48.8122706324211	1.00090199933038	win	NaN	n/a	n/a
51.6480506037478	3.00699079676997	decision	1.80174368424923	left	B
55.2009381638491	1.00074110052083	win	NaN	n/a	n/a
60.1385625547846	3.00644893303979	decision	1.80012775305659	right	B
63.6913163847348	1.0008244177443	loss	NaN	n/a	n/a
68.6121686593979	3.00666145229479	decision	1.55030804726994	left	B
72.165096066863	1.00065476458985	win	NaN	n/a	n/a
75.0173963916022	3.00713448875467	decision	2.56783062213799	right	B
78.5703835700988	1.00062850155518	win	NaN	n/a	n/a
83.4913608205679	3.0067332983017	decision	2.06347020398243	left	B
87.0439120930969	1.00081022968516	loss	NaN	n/a	n/a
94.0998810314923	3.00736542232335	decision	2.31796503151418	right	B
97.652646634524	1.00089143373771	loss	NaN	n/a	n/a
104.691954546259	3.00708588704583	decision	2.56786473389366	right	B
108.244901273632	1.00077008042717	win	NaN	n/a	n/a
115.283922405128	3.00739893032005	decision	2.31794812658336	left	B
118.836920451082	1.00071755435783	win	NaN	n/a	n/a
123.75771536972	3.00684861413902	decision	2.31762632896425	left	B
127.310490632721	1.00085249199765	win	NaN	n/a	n/a
130.163024004112	3.00679638996371	decision	2.31754482301767	right	B
133.715874735615	1.00065838705632	win	NaN	n/a	n/a
136.501946936012	3.0070442284341	decision	1.80091896464	right	B
140.054411268851	1.00077219353989	loss	NaN	n/a	n/a
142.890237728745	3.00765552319353	decision	2.31753154055332	right	B
146.443076385272	1.00087392507703	loss	NaN	n/a	n/a
155.58391748459	3.00699683424318	decision	2.56813400544343	right	B
159.136812893412	1.00081928586587	loss	NaN	n/a	n/a
164.107757828286	3.00774940598058	decision	2.31759734905791	right	B
167.660559354321	1.00072328996612	win	NaN	n/a	n/a
170.496344457497	3.00676197631401	decision	2.31746724140248	right	B
174.049166209094	1.00087784940843	loss	NaN	n/a	n/a
181.105067225813	3.00738383666612	decision	1.80084560930845	left	B
184.657707551174	1.00121051451424	loss	NaN	n/a	n/a
187.493734455376	3.00621015075012	decision	2.8180119729368	right	B
191.046590016864	1.00079573970288	win	NaN	n/a	n/a
193.848937147122	3.00658688944532	decision	2.06727955129463	left	B
197.401889912027	1.00078366475645	win	NaN	n/a	n/a
204.457787306281	3.00688544273726	decision	2.56767183644115	left	B
208.010397142352	1.00089988621767	loss	NaN	n/a	n/a
215.032970370172	3.00630161855952	decision	2.81899064825848	left	B
218.586049620237	1.00087573629571	loss	NaN	n/a	n/a
223.523533639789	3.00695789250312	decision	2.31778119030059	right	B
227.076694697695	1.0004820926697	loss	NaN	n/a	n/a
229.91207227105	3.00728602948948	decision	2.06319066870492	left	B
233.464919681923	1.00080147531116	loss	NaN	n/a	n/a
240.52087896032	3.00655972078675	decision	1.55036932768417	right	B
244.073761388572	1.00059771040105	loss	NaN	n/a	n/a
246.926011904114	3.00674839198473	decision	2.06747093933518	left	B
250.479033496231	1.00070910190698	win	NaN	n/a	n/a
253.314696642366	3.00698143866612	decision	2.31760851838044	right	B
256.867723064468	1.00075709985686	loss	NaN	n/a	n/a
259.670051478577	3.00679669182864	decision	2.3176091221394	left	B
263.222820100345	1.00086064261268	win	NaN	n/a	n/a
268.160446604394	3.00620018891641	decision	2.81822117156116	right	B
271.713271978457	1.00059257855173	win	NaN	n/a	n/a
274.53213644342	3.00697962741833	decision	1.55087375902804	right	B
278.085157129914	1.00066080206307	win	NaN	n/a	n/a
282.98930068186	3.00714565810631	decision	2.31781439643237	left	B
286.542307784024	1.0006915932172	win	NaN	n/a	n/a
293.614720701706	3.00655700391508	decision	2.31795235280879	left	B
297.16763180797	1.0007673635846	win	NaN	n/a	n/a
304.240153400257	3.00674748638994	decision	1.80036381850368	right	B
307.793211519165	1.00082864396973	win	NaN	n/a	n/a
310.662101628288	3.00677767375601	decision	1.80058026209008	right	B
314.214854854479	1.00077309916378	loss	NaN	n/a	n/a
317.034079455043	3.00696030750987	decision	1.80042509888881	left	B
320.586953430815	1.00075830734568	win	NaN	n/a	n/a
325.524408470461	3.0069114039361	decision	1.80162384032155	left	B
329.07723233517	1.00080962592619	loss	NaN	n/a	n/a
336.133105579502	3.00617724651238	decision	1.80053467914695	left	B
339.686119021062	1.0007329499349	win	NaN	n/a	n/a
346.741963285487	3.00666386730154	decision	1.54939457672299	right	B
350.29505672364	1.0007703822921	win	NaN	n/a	n/a
363.655964832898	3.00640395382652	decision	2.06717419726192	right	B
367.208802583802	1.00072600683779	loss	NaN	n/a	n/a
372.16287336903	3.00675412759301	decision	1.55036902579013	right	B
375.715882886201	1.0008008715813	win	NaN	n/a	n/a
380.653210836928	3.00631671224255	decision	2.81866764312144	left	B
384.206085416459	1.00079906030442	loss	NaN	n/a	n/a
389.143696826795	3.00675654259976	decision	2.06731909676455	left	B
392.696351943974	1.00091980991419	loss	NaN	n/a	n/a
399.769049528753	3.00709856578032	decision	1.80053407538799	right	B
403.321887279686	1.0009071311797	loss	NaN	n/a	n/a
406.141108559619	3.09098359887139	decision	3.08471850707429	left	B
409.777177484677	1.0008775475435	loss	NaN	n/a	n/a
416.816536413098	3.00762926015886	decision	1.8006424481282	right	B
420.369368126529	1.00080630529555	win	NaN	n/a	n/a
423.188605707663	3.00690023458446	decision	2.06754972843919	right	B
426.741562396899	1.0005578630371	loss	NaN	n/a	n/a
431.645555917465	3.00628320424585	decision	2.06307293788996	left	B
435.19827895629	1.00095754413633	loss	NaN	n/a	n/a
438.034085190651	3.00717644923134	decision	1.55087979650125	left	B
441.586941053974	1.00083679458476	win	NaN	n/a	n/a
444.389418291947	3.0070403040736	decision	1.55022774878307	right	B
447.942112048971	1.00079694722081	win	NaN	n/a	n/a
450.76123310675	3.00795769901015	decision	1.80084228867781	left	B
454.313986634836	1.00085249202675	win	NaN	n/a	n/a
459.251717889158	3.00650568533456	decision	2.31736460424145	left	B
462.804483492189	1.0006001253787	win	NaN	n/a	n/a
467.742599032004	3.00663941551466	decision	2.56764225283405	right	B
471.295025026862	1.000968109729	loss	NaN	n/a	n/a
478.384071198787	3.00717644923134	decision	2.06406308439909	left	B
481.936908044067	1.0007172524929	loss	NaN	n/a	n/a
486.841260492773	3.09178296106984	decision	3.08560148836114	right	B
490.477290777984	1.00070608314127	loss	NaN	n/a	n/a
493.313138972822	3.00659745500889	decision	2.06717027290142	left	B
496.86606456904	1.00064118026057	win	NaN	n/a	n/a
499.685025331768	3.00670673337299	decision	1.80044773942791	right	B
503.237646035297	1.0009641853685	win	NaN	n/a	n/a
