onset	duration	trial_type	rt	resp	gender
0.659222799818963	3.03363110031933	decision-missed	n/a	n/a	B
4.24234180012718	1.01699099969119	loss	n/a	n/a	n/a
11.2422680999152	3.00374229997396	decision	1.2827098998241127	left	B
14.7923539001495	1.00005829986185	win	n/a	n/a	n/a
21.758758299984	3.00385629991069	decision	1.533272699918598	left	B
25.3091564001516	1.00000989995897	loss	n/a	n/a	n/a
32.2758351997472	3.00319550000131	decision	1.283805700019002	left	B
35.8256733999588	1.0000919001177	loss	n/a	n/a	n/a
38.5753711997531	3.0044196001254	decision	1.2837137002497911	left	B
42.1257584998384	1.01675050007179	loss	n/a	n/a	n/a
44.8756679999642	3.0034031001851	decision	1.5334322000853717	left	B
48.4256643997505	1.00007629999891	win	n/a	n/a	n/a
51.2089976998977	3.0030050999485	decision	1.7825951999984682	right	B
54.7588130999357	1.00027280021459	win	n/a	n/a	n/a
59.625741600059	3.00294259982184	decision	2.0333543000742793	left	B
63.1754544000141	1.00006489967927	loss	n/a	n/a	n/a
68.025852299761	3.00324570015073	decision	1.782249300274998	left	B
71.5757096000016	1.01650010002777	win	n/a	n/a	n/a
74.375543799717	3.00446520000696	decision	1.532548200339079	right	B
77.9257032996975	1.01651800004765	win	n/a	n/a	n/a
82.79218879994	3.003841499798	decision	1.7836063001304865	right	B
86.3421744001098	1.00001689977944	loss	n/a	n/a	n/a
93.3090185998008	3.00295470003039	decision	2.2832387001253664	right	B
96.8586232000962	1.00042349984869	loss	n/a	n/a	n/a
103.809158199932	3.00293819978833	decision	1.0324260001070797	right	B
107.359086200129	1.01660259999335	win	n/a	n/a	n/a
114.325317699928	3.00321919983253	decision	1.7826086999848485	right	B
117.875736999791	1.01639180025086	win	n/a	n/a	n/a
122.741963800043	3.00287869991735	decision	2.0335936998017132	left	B
126.292139300145	1.00009909970686	win	n/a	n/a	n/a
129.075618899893	3.00348079996184	decision	1.7823502998799086	right	B
132.625632999931	1.00003900006413	win	n/a	n/a	n/a
135.359098599758	3.00392960011959	decision	2.0319591001607478	left	B
138.909015799873	1.01691209990531	loss	n/a	n/a	n/a
141.692205300089	3.00354259973392	decision	1.2827948997728527	right	B
145.242141199764	1.00004680035636	loss	n/a	n/a	n/a
154.292255399749	3.00275890016928	decision	2.032215000130236	right	B
157.842202399857	1.01676100026816	loss	n/a	n/a	n/a
162.742259500083	3.00370679982007	decision	1.2834000997245312	right	B
166.292466799729	1.01639350038022	win	n/a	n/a	n/a
169.092066899873	3.0040082000196	decision	1.5333671998232603	right	B
172.642143799923	1.01667860010639	loss	n/a	n/a	n/a
179.625695999712	3.00297010038048	decision	1.7825234001502395	right	B
183.175475500058	1.00015089986846	loss	n/a	n/a	n/a
185.942299599759	3.00377390021458	decision	1.0327060003764927	right	B
189.492192999925	1.00001990003511	win	n/a	n/a	n/a
192.242399299983	3.00263720005751	decision	1.2832069001160562	right	B
195.792212999891	1.01638909988105	win	n/a	n/a	n/a
202.775397799909	3.00362849980593	decision	1.5329125998541713	right	B
206.325586900115	1.01660069962963	loss	n/a	n/a	n/a
213.292313499842	3.00342410011217	decision	1.5327012999914587	left	B
216.842098399997	1.00012869993225	loss	n/a	n/a	n/a
221.69225959992	3.00442830007523	decision	1.2828564997762442	left	B
225.242267999798	1.01655729999766	loss	n/a	n/a	n/a
228.025592799764	3.00337109994143	decision	1.0334430001676083	left	B
231.575269700028	1.01681359997019	loss	n/a	n/a	n/a
238.55889320001	3.00412739999592	decision	1.0339429997839034	left	B
242.108877399936	1.01641160016879	loss	n/a	n/a	n/a
244.908453200012	3.00337709998712	decision	1.2824534000828862	left	B
248.458601799794	1.00018709991127	win	n/a	n/a	n/a
251.242194999941	3.00283139990643	decision	2.283518800046295	left	B
254.792118799873	1.01665670005605	loss	n/a	n/a	n/a
257.558709499892	3.00329999998212	decision	2.0333563000895083	left	B
261.108785899822	1.01643350021914	win	n/a	n/a	n/a
265.991769599728	3.0042215003632	decision	1.7829653001390398	right	B
269.542204899713	1.01611470011994	win	n/a	n/a	n/a
272.32531630015	3.00469959992915	decision	1.5333132999949157	left	B
275.875201100018	1.00000880006701	win	n/a	n/a	n/a
280.708838199731	3.00319740036502	decision	2.0332629000768065	left	B
284.258607000113	1.00004850002006	win	n/a	n/a	n/a
291.242231099866	3.00284040020779	decision	2.7832476999610662	right	B
294.792107599787	1.00017210002989	win	n/a	n/a	n/a
301.758540699724	3.00323879998177	decision	2.03353220038116	left	B
305.308712100144	1.01643059961498	win	n/a	n/a	n/a
308.108509100042	3.00457899970934	decision	1.533532700035721	left	B
311.658640800044	1.01650079991668	loss	n/a	n/a	n/a
314.441733399872	3.00332000013441	decision	1.7832920998334885	right	B
317.992069399916	1.00002689985558	win	n/a	n/a	n/a
322.875488299876	3.05204079998657	decision	3.048574900254607	right	B
326.475202600006	1.01646849978715	loss	n/a	n/a	n/a
333.458793200087	3.00322779966518	decision	1.782220299821347	left	B
337.008701299783	1.01647499995306	win	n/a	n/a	n/a
343.991886199918	3.00321510015056	decision	2.0324364001862705	left	B
347.541832500137	1.00019559962675	win	n/a	n/a	n/a
360.808670399711	3.00335610006005	decision	1.2839461001567543	right	B
364.358553499915	1.00010220007971	loss	n/a	n/a	n/a
369.242172699887	3.0028619999066	decision	1.7835293002426624	right	B
372.791909200139	1.01674279989675	win	n/a	n/a	n/a
377.675005400088	3.00302110007033	decision	1.5331407999619842	right	B
381.225166599732	1.00024260021746	loss	n/a	n/a	n/a
386.092059900053	3.00296249985695	decision	1.0330374999903142	left	B
389.641913800035	1.00012199999765	loss	n/a	n/a	n/a
396.625222699717	3.00373810017481	decision	1.2828608001582325	right	B
400.175210800022	1.00000709993765	loss	n/a	n/a	n/a
402.925339399837	3.00323450006545	decision	1.7837173002772033	right	B
406.475227799732	1.00009570037946	loss	n/a	n/a	n/a
413.425550799817	3.00306560005993	decision	2.782520799897611	right	B
416.975135199726	1.01666030008346	win	n/a	n/a	n/a
419.742299300153	3.00474029965699	decision	1.2827257998287678	right	B
423.291873299982	1.00014120014384	loss	n/a	n/a	n/a
428.125248100143	3.00368169974536	decision	1.5325824995525181	left	B
431.675006699748	1.00024580024183	loss	n/a	n/a	n/a
434.458449599799	3.00361389992759	decision	1.0329912002198398	left	B
438.008584300056	1.01661109970883	win	n/a	n/a	n/a
440.775337900035	3.00387399969622	decision	1.0328007997013628	left	B
444.325217300095	1.00031449971721	win	n/a	n/a	n/a
447.091737799812	3.003048799932	decision	1.0333287003450096	right	B
450.641833799891	1.01635449985042	win	n/a	n/a	n/a
455.525348199997	3.00280819972977	decision	1.7821500999853015	right	B
459.075032199733	1.00005000038072	win	n/a	n/a	n/a
463.941582200117	3.00350359966978	decision	1.0325027997605503	right	B
467.491849299986	1.01631589978933	loss	n/a	n/a	n/a
474.50834099995	3.0033839000389	decision	1.282674599904567	right	B
478.058016299736	1.00025350041687	loss	n/a	n/a	n/a
482.908337499946	3.0027788002044	decision	1.033345100004226	right	B
486.45825190004	1.01716869976372	loss	n/a	n/a	n/a
489.258266499732	3.00388120021671	decision	1.033782200422138	right	B
492.808234800119	1.01682439958677	win	n/a	n/a	n/a
495.591920100152	3.00318659981713	decision	1.2821069997735322	right	B
499.141683300026	1.01647139992565	win	n/a	n/a	n/a
