TrialNumber,Trialn,Blockn,BlockType,Partner,Feedback,ITI,ran,order,decision_onset,resp,resp_onset,rt,outcome_val,outcome_onset,outcome_offset,trialDuration,ITIonset,ITIoffset
1,1,1,1,1,1,0.750000,1.0,0.0,4.049499,0.0,999.0,999.0,999.0,6.565731,7.6059647,3.5564656,7.606244,8.363848
2,2,1,1,1,1,0.750000,1.0,1.0,8.380423,2.0,9.662612,1.2821891,6.0,10.896492,11.911709,3.5312862,11.911972,12.6764345
3,3,1,1,1,1,0.750000,1.0,2.0,12.693318,2.0,13.792627,1.0993084,7.0,15.210113,16.218407,3.5250874,16.218681,16.972874
4,4,1,1,1,1,0.750000,1.0,3.0,16.98972,3.0,17.623098,0.63337886,3.0,19.506212,20.513582,3.5238628,20.51388,21.269892
5,5,1,1,1,2,0.750000,1.0,4.0,21.286188,3.0,21.702868,0.4166797,5.0,23.802877,24.814692,3.528504,24.815222,25.565811
6,6,1,1,1,1,0.750000,1.0,5.0,25.581625,2.0,25.949364,0.36773765,8.0,28.098953,29.110956,3.5293295,29.111341,29.862368
7,7,1,1,1,2,0.750000,1.0,6.0,29.877796,3.0,30.46244,0.5846441,5.0,32.39526,33.402775,3.5249794,33.402996,34.15866
8,8,1,1,1,1,12,1.0,7.0,34.17585,3.0,34.775562,0.59971184,4.0,36.692703,37.70404,3.5281901,37.704536,49.712738
9,9,2,5,3,3,0.750000,1.0,8.0,49.75572,2.0,50.928394,1.1726755,3.0,52.273464,53.284714,3.5289972,53.284935,54.042404
10,10,2,5,3,1,0.750000,1.0,9.0,54.05899,3.0,54.559246,0.50025654,1.0,56.57601,57.586014,3.527024,57.58669,58.33875
11,11,2,5,3,1,0.750000,1.0,10.0,58.356564,2.0,58.73894,0.3823761,7.0,60.873837,61.87923,3.5226665,61.879513,62.635334
12,12,2,5,3,1,0.750000,1.0,11.0,62.650986,3.0,63.00219,0.351203,3.0,65.16772,66.17371,3.5227292,66.17397,66.93185
13,13,2,5,3,1,0.750000,1.0,12.0,66.948235,2.0,67.44852,0.50028265,8.0,69.46482,70.47029,3.522054,70.470505,71.228325
14,14,2,5,3,1,0.750000,1.0,13.0,71.244774,3.0,72.16134,0.91656137,2.0,73.762634,74.76937,3.5245974,74.76965,75.52484
15,15,2,5,3,2,0.750000,1.0,14.0,75.540726,0.0,999.0,999.0,999.0,78.05667,79.072945,3.532226,79.07325,79.83789
16,16,2,5,3,1,8,1.0,15.0,79.85458,0.0,999.0,999.0,999.0,82.36988,83.386116,3.5315323,83.38641,91.39498
17,17,3,6,3,3,0.750000,1.0,16.0,91.41157,0.0,999.0,999.0,999.0,93.927155,94.94366,3.5320873,94.94387,95.70821
18,18,3,6,3,3,0.750000,1.0,17.0,95.72438,0.0,999.0,999.0,999.0,98.240295,99.256546,3.5321662,99.25676,100.02128
19,19,3,6,3,3,0.750000,1.0,18.0,100.03903,0.0,999.0,999.0,999.0,102.55325,103.569046,3.530019,103.56926,104.33413
20,20,3,6,3,3,0.750000,1.0,19.0,104.35019,0.0,999.0,999.0,999.0,106.86658,107.88287,3.532686,107.88309,108.64775
21,21,3,6,3,1,0.750000,1.0,20.0,108.66542,0.0,999.0,999.0,999.0,111.17954,112.196045,3.5306232,112.19635,112.96066
22,22,3,6,3,3,0.750000,1.0,21.0,112.97815,0.0,999.0,999.0,999.0,115.49284,116.50966,3.5315056,116.510056,117.27389
23,23,3,6,3,2,0.750000,1.0,22.0,117.29156,0.0,999.0,999.0,999.0,119.80581,120.82252,3.530961,120.82282,121.58702
24,24,3,6,3,3,10,1.0,23.0,121.60319,0.0,999.0,999.0,999.0,124.11902,125.13555,3.532366,125.135765,135.14249
25,25,4,5,3,1,0.750000,1.0,24.0,135.15944,0.0,999.0,999.0,999.0,137.67442,138.6908,3.5313587,138.69106,139.45552
26,26,4,5,3,1,0.750000,1.0,25.0,139.474,0.0,999.0,999.0,999.0,141.98763,143.00348,3.5294697,143.00378,143.76863
27,27,4,5,3,3,0.750000,1.0,26.0,143.785,0.0,999.0,999.0,999.0,146.30066,147.31665,3.5316381,147.31706,148.08186
28,28,4,5,3,2,0.750000,1.0,27.0,148.09949,0.0,999.0,999.0,999.0,150.6143,151.63031,3.5308204,151.63052,152.39488
29,29,4,5,3,1,0.750000,1.0,28.0,152.41257,0.0,999.0,999.0,999.0,154.92688,155.9425,3.5299416,155.94278,156.70851
30,30,4,5,3,1,0.750000,1.0,29.0,156.72876,0.0,999.0,999.0,999.0,159.24136,160.25696,3.5281954,160.25725,161.02187
31,31,4,5,3,1,0.750000,1.0,30.0,161.0405,0.0,999.0,999.0,999.0,163.55452,164.56947,3.5289724,164.56973,165.33606
32,32,4,5,3,1,8,1.0,31.0,165.35616,0.0,999.0,999.0,999.0,167.86746,168.88313,3.5269697,168.88335,176.8918
33,33,5,2,1,3,0.750000,1.0,32.0,176.91435,0.0,999.0,999.0,999.0,179.4238,180.44002,3.525659,180.44046,181.20511
34,34,5,2,1,3,0.750000,1.0,33.0,181.22145,0.0,999.0,999.0,999.0,183.73763,184.75465,3.5331938,184.75513,185.51834
35,35,5,2,1,3,0.750000,1.0,34.0,185.53566,0.0,999.0,999.0,999.0,188.05038,189.06721,3.5315516,189.06747,189.83192
36,36,5,2,1,1,0.750000,1.0,35.0,189.84982,0.0,999.0,999.0,999.0,192.36371,193.37971,3.5298975,193.37993,194.14449
37,37,5,2,1,3,0.750000,1.0,36.0,194.16281,0.0,999.0,999.0,999.0,196.67642,197.69275,3.5299413,197.69324,198.45764
38,38,5,2,1,1,0.750000,1.0,37.0,198.47453,0.0,999.0,999.0,999.0,200.98975,202.00516,3.530626,202.0056,202.77075
39,39,5,2,1,3,0.750000,1.0,38.0,202.78568,0.0,999.0,999.0,999.0,205.28638,206.30243,3.516758,206.30273,207.06783
40,40,5,2,1,3,12,1.0,39.0,207.08722,0.0,999.0,999.0,999.0,209.60004,210.61595,3.5287225,210.61615,222.62283
41,41,6,4,2,2,0.750000,1.0,40.0,222.67552,0.0,999.0,999.0,999.0,225.18709,226.20424,3.5287106,226.20453,226.97073
42,42,6,4,2,3,0.750000,1.0,41.0,226.98973,0.0,999.0,999.0,999.0,229.50333,230.51845,3.528713,230.51866,231.28206
43,43,6,4,2,3,0.750000,1.0,42.0,231.2986,0.0,999.0,999.0,999.0,233.814,234.83063,3.532021,234.83101,235.59506
44,44,6,4,2,3,0.750000,1.0,43.0,235.61238,0.0,999.0,999.0,999.0,238.12744,239.14394,3.5315554,239.14444,239.90865
45,45,6,4,2,3,0.750000,1.0,44.0,239.92506,0.0,999.0,999.0,999.0,242.44086,243.4571,3.5320456,243.45732,244.22145
46,46,6,4,2,3,0.750000,1.0,45.0,244.23871,0.0,999.0,999.0,999.0,246.75325,247.7697,3.5309908,247.76997,248.5344
47,47,6,4,2,2,0.750000,1.0,46.0,248.55074,0.0,999.0,999.0,999.0,251.06654,252.08289,3.5321505,252.0833,252.84792
48,48,6,4,2,3,10,1.0,47.0,252.8643,0.0,999.0,999.0,999.0,255.37941,256.39505,3.530744,256.39526,266.4033
49,49,7,3,2,1,0.750000,1.0,48.0,266.4199,0.0,999.0,999.0,999.0,268.9352,269.95175,3.5318515,269.9521,270.71613
50,50,7,3,2,2,0.750000,1.0,49.0,270.73236,0.0,999.0,999.0,999.0,273.2482,274.26392,3.5315611,274.26447,275.02954
51,51,7,3,2,1,0.750000,1.0,50.0,275.04565,0.0,999.0,999.0,999.0,277.56137,278.5771,3.531452,278.5773,279.34283
52,52,7,3,2,1,0.750000,1.0,51.0,279.35706,0.0,999.0,999.0,999.0,281.85736,282.87457,3.5175295,282.87494,283.63937
53,53,7,3,2,1,0.750000,1.0,52.0,283.66055,0.0,999.0,999.0,999.0,286.17163,287.1864,3.5258505,287.1866,287.9519
54,54,7,3,2,3,0.750000,1.0,53.0,287.96884,0.0,999.0,999.0,999.0,290.48367,291.5009,3.5320535,291.50116,292.26495
55,55,7,3,2,1,0.750000,1.0,54.0,292.28204,0.0,999.0,999.0,999.0,294.7972,295.8134,3.5313447,295.8136,296.57825
56,56,7,3,2,1,12,1.0,55.0,296.59494,0.0,999.0,999.0,999.0,299.10986,300.12665,3.5316951,300.1269,312.13235
57,57,8,4,2,3,0.750000,1.0,56.0,312.1497,0.0,999.0,999.0,999.0,314.66464,315.6802,3.53052,315.68042,316.44522
58,58,8,4,2,3,0.750000,1.0,57.0,316.462,0.0,999.0,999.0,999.0,318.97742,319.9936,3.5315957,319.99387,320.75812
59,59,8,4,2,3,0.750000,1.0,58.0,320.77527,0.0,999.0,999.0,999.0,323.28998,324.3072,3.5319395,324.30753,325.07156
60,60,8,4,2,1,0.750000,1.0,59.0,325.08777,0.0,999.0,999.0,999.0,327.6041,328.6193,3.5315142,328.6195,329.38458
61,61,8,4,2,3,0.750000,1.0,60.0,329.40137,0.0,999.0,999.0,999.0,331.91632,332.9326,3.5312178,332.9328,333.69736
62,62,8,4,2,2,0.750000,1.0,61.0,333.71326,0.0,999.0,999.0,999.0,336.2296,337.24548,3.5322373,337.2457,338.011
63,63,8,4,2,3,0.750000,1.0,62.0,338.02887,0.0,999.0,999.0,999.0,340.54266,341.55872,3.5298567,341.55917,342.32413
64,64,8,4,2,3,10,1.0,63.0,342.3405,0.0,999.0,999.0,999.0,344.85593,345.8733,3.5327709,345.8736,355.87912
65,65,9,6,3,2,0.750000,1.0,64.0,355.90002,0.0,999.0,999.0,999.0,358.411,359.4278,3.5277746,359.42822,360.19327
66,66,9,6,3,2,0.750000,1.0,65.0,360.2107,0.0,999.0,999.0,999.0,362.72455,363.741,3.5303051,363.7412,364.5056
67,67,9,6,3,3,0.750000,1.0,66.0,364.52402,0.0,999.0,999.0,999.0,367.03827,368.05356,3.5295475,368.05377,368.81903
68,68,9,6,3,3,0.750000,1.0,67.0,368.83783,0.0,999.0,999.0,999.0,371.35107,372.36682,3.528975,372.36703,373.1317
69,69,9,6,3,3,0.750000,1.0,68.0,373.1501,0.0,999.0,999.0,999.0,375.66425,376.6806,3.530519,376.68082,377.44473
70,70,9,6,3,3,0.750000,1.0,69.0,377.46417,0.0,999.0,999.0,999.0,379.97726,380.99246,3.5282996,380.9928,381.75815
71,71,9,6,3,3,0.750000,1.0,70.0,381.77838,0.0,999.0,999.0,999.0,384.28995,385.30597,3.5275912,385.3062,386.07108
72,72,9,6,3,3,8,1.0,71.0,386.08914,0.0,999.0,999.0,999.0,388.60376,389.61984,3.530706,389.62027,397.62833
﻿TrialNumber,Trialn,Blockn,BlockType,Partner,Feedback,ITI,ran,order,decision_onset,resp,resp_onset,rt,outcome_val,outcome_onset,outcome_offset,trialDuration,ITIonset,ITIoffset
1,1,1,1,1,1,0.750000,1.0,0.0,4.0183535,2,999.0,999.0,1.0,4.5718255,5.584299,1.5659457,5.584575,6.3429303
2,2,1,1,1,1,0.750000,1.0,1.0,6.3545504,3,999.0,999.0,4.0,6.7762966,7.7924886,1.4379381,7.792705,8.557665
3,3,1,1,1,1,0.750000,1.0,2.0,8.56906,num_2,999.0,999.0,1.0,9.707136,10.723013,2.153952,10.723228,11.488632
4,4,1,1,1,1,0.750000,1.0,3.0,11.500142,num_2,999.0,999.0,2.0,12.954445,13.971134,2.4709923,13.971343,14.736068
5,5,1,1,1,2,0.750000,1.0,4.0,14.747726,num_2,999.0,999.0,2.0,15.619054,16.63537,1.8876439,16.63558,17.400394
6,6,1,1,1,1,0.750000,1.0,5.0,17.411835,num_2,999.0,999.0,2.0,18.100237,19.116985,1.7051498,19.117231,19.881931
7,7,1,1,1,2,0.750000,1.0,6.0,19.89405,num_2,999.0,999.0,1.0,20.265268,21.282192,1.3881415,21.282436,22.046675
8,8,1,1,1,1,12,1.0,7.0,22.058323,num_2,999.0,999.0,3.0,22.8466,23.862104,1.803782,23.862318,35.868633
9,9,2,5,3,3,0.750000,1.0,8.0,35.914486,num_2,999.0,999.0,3.0,36.268627,37.28493,1.3704462,37.285168,38.050144
10,10,2,5,3,1,0.750000,1.0,9.0,38.062138,--,--,--,--,--,--,--,--,--
11,11,2,5,3,1,0.750000,0.0,--,--,--,--,--,--,--,--,--,--,--
12,12,2,5,3,1,0.750000,0.0,--,--,--,--,--,--,--,--,--,--,--
13,13,2,5,3,1,0.750000,0.0,--,--,--,--,--,--,--,--,--,--,--
14,14,2,5,3,1,0.750000,0.0,--,--,--,--,--,--,--,--,--,--,--
15,15,2,5,3,2,0.750000,0.0,--,--,--,--,--,--,--,--,--,--,--
16,16,2,5,3,1,8,0.0,--,--,--,--,--,--,--,--,--,--,--
17,17,3,6,3,3,0.750000,0.0,--,--,--,--,--,--,--,--,--,--,--
18,18,3,6,3,3,0.750000,0.0,--,--,--,--,--,--,--,--,--,--,--
19,19,3,6,3,3,0.750000,0.0,--,--,--,--,--,--,--,--,--,--,--
20,20,3,6,3,3,0.750000,0.0,--,--,--,--,--,--,--,--,--,--,--
21,21,3,6,3,1,0.750000,0.0,--,--,--,--,--,--,--,--,--,--,--
22,22,3,6,3,3,0.750000,0.0,--,--,--,--,--,--,--,--,--,--,--
23,23,3,6,3,2,0.750000,0.0,--,--,--,--,--,--,--,--,--,--,--
24,24,3,6,3,3,10,0.0,--,--,--,--,--,--,--,--,--,--,--
25,25,4,5,3,1,0.750000,0.0,--,--,--,--,--,--,--,--,--,--,--
26,26,4,5,3,1,0.750000,0.0,--,--,--,--,--,--,--,--,--,--,--
27,27,4,5,3,3,0.750000,0.0,--,--,--,--,--,--,--,--,--,--,--
28,28,4,5,3,2,0.750000,0.0,--,--,--,--,--,--,--,--,--,--,--
29,29,4,5,3,1,0.750000,0.0,--,--,--,--,--,--,--,--,--,--,--
30,30,4,5,3,1,0.750000,0.0,--,--,--,--,--,--,--,--,--,--,--
31,31,4,5,3,1,0.750000,0.0,--,--,--,--,--,--,--,--,--,--,--
32,32,4,5,3,1,8,0.0,--,--,--,--,--,--,--,--,--,--,--
33,33,5,2,1,3,0.750000,0.0,--,--,--,--,--,--,--,--,--,--,--
34,34,5,2,1,3,0.750000,0.0,--,--,--,--,--,--,--,--,--,--,--
35,35,5,2,1,3,0.750000,0.0,--,--,--,--,--,--,--,--,--,--,--
36,36,5,2,1,1,0.750000,0.0,--,--,--,--,--,--,--,--,--,--,--
37,37,5,2,1,3,0.750000,0.0,--,--,--,--,--,--,--,--,--,--,--
38,38,5,2,1,1,0.750000,0.0,--,--,--,--,--,--,--,--,--,--,--
39,39,5,2,1,3,0.750000,0.0,--,--,--,--,--,--,--,--,--,--,--
40,40,5,2,1,3,12,0.0,--,--,--,--,--,--,--,--,--,--,--
41,41,6,4,2,2,0.750000,0.0,--,--,--,--,--,--,--,--,--,--,--
42,42,6,4,2,3,0.750000,0.0,--,--,--,--,--,--,--,--,--,--,--
43,43,6,4,2,3,0.750000,0.0,--,--,--,--,--,--,--,--,--,--,--
44,44,6,4,2,3,0.750000,0.0,--,--,--,--,--,--,--,--,--,--,--
45,45,6,4,2,3,0.750000,0.0,--,--,--,--,--,--,--,--,--,--,--
46,46,6,4,2,3,0.750000,0.0,--,--,--,--,--,--,--,--,--,--,--
47,47,6,4,2,2,0.750000,0.0,--,--,--,--,--,--,--,--,--,--,--
48,48,6,4,2,3,10,0.0,--,--,--,--,--,--,--,--,--,--,--
49,49,7,3,2,1,0.750000,0.0,--,--,--,--,--,--,--,--,--,--,--
50,50,7,3,2,2,0.750000,0.0,--,--,--,--,--,--,--,--,--,--,--
51,51,7,3,2,1,0.750000,0.0,--,--,--,--,--,--,--,--,--,--,--
52,52,7,3,2,1,0.750000,0.0,--,--,--,--,--,--,--,--,--,--,--
53,53,7,3,2,1,0.750000,0.0,--,--,--,--,--,--,--,--,--,--,--
54,54,7,3,2,3,0.750000,0.0,--,--,--,--,--,--,--,--,--,--,--
55,55,7,3,2,1,0.750000,0.0,--,--,--,--,--,--,--,--,--,--,--
56,56,7,3,2,1,12,0.0,--,--,--,--,--,--,--,--,--,--,--
57,57,8,4,2,3,0.750000,0.0,--,--,--,--,--,--,--,--,--,--,--
58,58,8,4,2,3,0.750000,0.0,--,--,--,--,--,--,--,--,--,--,--
59,59,8,4,2,3,0.750000,0.0,--,--,--,--,--,--,--,--,--,--,--
60,60,8,4,2,1,0.750000,0.0,--,--,--,--,--,--,--,--,--,--,--
61,61,8,4,2,3,0.750000,0.0,--,--,--,--,--,--,--,--,--,--,--
62,62,8,4,2,2,0.750000,0.0,--,--,--,--,--,--,--,--,--,--,--
63,63,8,4,2,3,0.750000,0.0,--,--,--,--,--,--,--,--,--,--,--
64,64,8,4,2,3,10,0.0,--,--,--,--,--,--,--,--,--,--,--
65,65,9,6,3,2,0.750000,0.0,--,--,--,--,--,--,--,--,--,--,--
66,66,9,6,3,2,0.750000,0.0,--,--,--,--,--,--,--,--,--,--,--
67,67,9,6,3,3,0.750000,0.0,--,--,--,--,--,--,--,--,--,--,--
68,68,9,6,3,3,0.750000,0.0,--,--,--,--,--,--,--,--,--,--,--
69,69,9,6,3,3,0.750000,0.0,--,--,--,--,--,--,--,--,--,--,--
70,70,9,6,3,3,0.750000,0.0,--,--,--,--,--,--,--,--,--,--,--
71,71,9,6,3,3,0.750000,0.0,--,--,--,--,--,--,--,--,--,--,--
72,72,9,6,3,3,8,0.0,--,--,--,--,--,--,--,--,--,--,--
﻿TrialNumber,Trialn,Blockn,BlockType,Partner,Feedback,ITI,ran,order,decision_onset,resp,resp_onset,rt,outcome_val,outcome_onset,outcome_offset,trialDuration,ITIonset,ITIoffset
1,1,1,1,1,1,0.750000,1.0,0.0,4.018216,2,999.0,999.0,3.0,4.6221123,5.638229,1.6200131,5.638531,6.4033375
2,2,1,1,1,1,0.750000,1.0,1.0,6.4190784,3,999.0,999.0,1.0,7.0032454,8.019208,1.6001296,8.019423,8.784459
3,3,1,1,1,1,0.750000,1.0,2.0,8.797857,num_2,999.0,999.0,4.0,9.484589,10.500234,1.7023768,10.500451,11.266059
4,4,1,1,1,1,0.750000,1.0,3.0,11.278777,0,999.0,999.0,3.0,13.7809515,14.797442,3.5186646,14.797713,15.562386
5,5,1,1,1,2,0.750000,1.0,4.0,15.576492,3,999.0,999.0,1.0,17.378036,18.393772,2.8172789,18.39399,19.159771
6,6,1,1,1,1,0.750000,1.0,5.0,19.175632,--,--,--,--,--,--,--,--,--
7,7,1,1,1,2,0.750000,0.0,--,--,--,--,--,--,--,--,--,--,--
8,8,1,1,1,1,12,0.0,--,--,--,--,--,--,--,--,--,--,--
9,9,2,5,3,3,0.750000,0.0,--,--,--,--,--,--,--,--,--,--,--
10,10,2,5,3,1,0.750000,0.0,--,--,--,--,--,--,--,--,--,--,--
11,11,2,5,3,1,0.750000,0.0,--,--,--,--,--,--,--,--,--,--,--
12,12,2,5,3,1,0.750000,0.0,--,--,--,--,--,--,--,--,--,--,--
13,13,2,5,3,1,0.750000,0.0,--,--,--,--,--,--,--,--,--,--,--
14,14,2,5,3,1,0.750000,0.0,--,--,--,--,--,--,--,--,--,--,--
15,15,2,5,3,2,0.750000,0.0,--,--,--,--,--,--,--,--,--,--,--
16,16,2,5,3,1,8,0.0,--,--,--,--,--,--,--,--,--,--,--
17,17,3,6,3,3,0.750000,0.0,--,--,--,--,--,--,--,--,--,--,--
18,18,3,6,3,3,0.750000,0.0,--,--,--,--,--,--,--,--,--,--,--
19,19,3,6,3,3,0.750000,0.0,--,--,--,--,--,--,--,--,--,--,--
20,20,3,6,3,3,0.750000,0.0,--,--,--,--,--,--,--,--,--,--,--
21,21,3,6,3,1,0.750000,0.0,--,--,--,--,--,--,--,--,--,--,--
22,22,3,6,3,3,0.750000,0.0,--,--,--,--,--,--,--,--,--,--,--
23,23,3,6,3,2,0.750000,0.0,--,--,--,--,--,--,--,--,--,--,--
24,24,3,6,3,3,10,0.0,--,--,--,--,--,--,--,--,--,--,--
25,25,4,5,3,1,0.750000,0.0,--,--,--,--,--,--,--,--,--,--,--
26,26,4,5,3,1,0.750000,0.0,--,--,--,--,--,--,--,--,--,--,--
27,27,4,5,3,3,0.750000,0.0,--,--,--,--,--,--,--,--,--,--,--
28,28,4,5,3,2,0.750000,0.0,--,--,--,--,--,--,--,--,--,--,--
29,29,4,5,3,1,0.750000,0.0,--,--,--,--,--,--,--,--,--,--,--
30,30,4,5,3,1,0.750000,0.0,--,--,--,--,--,--,--,--,--,--,--
31,31,4,5,3,1,0.750000,0.0,--,--,--,--,--,--,--,--,--,--,--
32,32,4,5,3,1,8,0.0,--,--,--,--,--,--,--,--,--,--,--
33,33,5,2,1,3,0.750000,0.0,--,--,--,--,--,--,--,--,--,--,--
34,34,5,2,1,3,0.750000,0.0,--,--,--,--,--,--,--,--,--,--,--
35,35,5,2,1,3,0.750000,0.0,--,--,--,--,--,--,--,--,--,--,--
36,36,5,2,1,1,0.750000,0.0,--,--,--,--,--,--,--,--,--,--,--
37,37,5,2,1,3,0.750000,0.0,--,--,--,--,--,--,--,--,--,--,--
38,38,5,2,1,1,0.750000,0.0,--,--,--,--,--,--,--,--,--,--,--
39,39,5,2,1,3,0.750000,0.0,--,--,--,--,--,--,--,--,--,--,--
40,40,5,2,1,3,12,0.0,--,--,--,--,--,--,--,--,--,--,--
41,41,6,4,2,2,0.750000,0.0,--,--,--,--,--,--,--,--,--,--,--
42,42,6,4,2,3,0.750000,0.0,--,--,--,--,--,--,--,--,--,--,--
43,43,6,4,2,3,0.750000,0.0,--,--,--,--,--,--,--,--,--,--,--
44,44,6,4,2,3,0.750000,0.0,--,--,--,--,--,--,--,--,--,--,--
45,45,6,4,2,3,0.750000,0.0,--,--,--,--,--,--,--,--,--,--,--
46,46,6,4,2,3,0.750000,0.0,--,--,--,--,--,--,--,--,--,--,--
47,47,6,4,2,2,0.750000,0.0,--,--,--,--,--,--,--,--,--,--,--
48,48,6,4,2,3,10,0.0,--,--,--,--,--,--,--,--,--,--,--
49,49,7,3,2,1,0.750000,0.0,--,--,--,--,--,--,--,--,--,--,--
50,50,7,3,2,2,0.750000,0.0,--,--,--,--,--,--,--,--,--,--,--
51,51,7,3,2,1,0.750000,0.0,--,--,--,--,--,--,--,--,--,--,--
52,52,7,3,2,1,0.750000,0.0,--,--,--,--,--,--,--,--,--,--,--
53,53,7,3,2,1,0.750000,0.0,--,--,--,--,--,--,--,--,--,--,--
54,54,7,3,2,3,0.750000,0.0,--,--,--,--,--,--,--,--,--,--,--
55,55,7,3,2,1,0.750000,0.0,--,--,--,--,--,--,--,--,--,--,--
56,56,7,3,2,1,12,0.0,--,--,--,--,--,--,--,--,--,--,--
57,57,8,4,2,3,0.750000,0.0,--,--,--,--,--,--,--,--,--,--,--
58,58,8,4,2,3,0.750000,0.0,--,--,--,--,--,--,--,--,--,--,--
59,59,8,4,2,3,0.750000,0.0,--,--,--,--,--,--,--,--,--,--,--
60,60,8,4,2,1,0.750000,0.0,--,--,--,--,--,--,--,--,--,--,--
61,61,8,4,2,3,0.750000,0.0,--,--,--,--,--,--,--,--,--,--,--
62,62,8,4,2,2,0.750000,0.0,--,--,--,--,--,--,--,--,--,--,--
63,63,8,4,2,3,0.750000,0.0,--,--,--,--,--,--,--,--,--,--,--
64,64,8,4,2,3,10,0.0,--,--,--,--,--,--,--,--,--,--,--
65,65,9,6,3,2,0.750000,0.0,--,--,--,--,--,--,--,--,--,--,--
66,66,9,6,3,2,0.750000,0.0,--,--,--,--,--,--,--,--,--,--,--
67,67,9,6,3,3,0.750000,0.0,--,--,--,--,--,--,--,--,--,--,--
68,68,9,6,3,3,0.750000,0.0,--,--,--,--,--,--,--,--,--,--,--
69,69,9,6,3,3,0.750000,0.0,--,--,--,--,--,--,--,--,--,--,--
70,70,9,6,3,3,0.750000,0.0,--,--,--,--,--,--,--,--,--,--,--
71,71,9,6,3,3,0.750000,0.0,--,--,--,--,--,--,--,--,--,--,--
72,72,9,6,3,3,8,0.0,--,--,--,--,--,--,--,--,--,--,--
﻿TrialNumber,Trialn,Blockn,BlockType,Partner,Feedback,ITI,ran,order,decision_onset,resp,resp_onset,rt,outcome_val,outcome_onset,outcome_offset,trialDuration,ITIonset,ITIoffset
1,1,1,1,1,1,0.750000,1.0,0.0,4.019904,3,999.0,999.0,3.0,4.454904,5.4736176,1.4537134,5.473904,6.2355294
2,2,1,1,1,1,0.750000,1.0,1.0,6.247309,2,999.0,999.0,3.0,6.5522733,7.568659,1.3213496,7.5690823,8.333692
3,3,1,1,1,1,0.750000,1.0,2.0,8.345439,2,999.0,999.0,2.0,8.833677,9.850992,1.5055535,9.851267,10.615079
4,4,1,1,1,1,0.750000,1.0,3.0,10.6269,3,999.0,999.0,4.0,10.9321575,11.949084,1.3221853,11.949295,12.7136545
5,5,1,1,1,2,0.750000,1.0,4.0,12.725907,num_2,999.0,999.0,4.0,13.946306,14.962579,2.2366714,14.962793,15.727758
6,6,1,1,1,1,0.750000,1.0,5.0,15.739571,num_2,999.0,999.0,3.0,16.843973,17.860182,2.1206107,17.860744,18.62534
7,7,1,1,1,2,0.750000,1.0,6.0,18.637234,0,999.0,999.0,4.0,21.140266,22.156416,3.5191815,22.156649,22.921883
8,8,1,1,1,1,12,1.0,7.0,22.934088,num_2,999.0,999.0,2.0,23.721533,24.738184,1.8040961,24.738443,36.743713
9,9,2,5,3,3,0.750000,1.0,8.0,36.761425,3,999.0,999.0,2.0,37.71004,38.72693,1.965503,38.727146,39.491497
10,10,2,5,3,1,0.750000,1.0,9.0,39.503326,3,999.0,999.0,2.0,39.891556,40.908447,1.4051217,40.908684,41.67304
11,11,2,5,3,1,0.750000,1.0,10.0,41.685173,2,999.0,999.0,3.0,42.089764,43.10628,1.4211107,43.106644,43.87133
12,12,2,5,3,1,0.750000,1.0,11.0,43.883324,3,999.0,999.0,3.0,44.238113,45.254612,1.3712878,45.254826,46.01946
13,13,2,5,3,1,0.750000,1.0,12.0,46.031586,2,999.0,999.0,4.0,46.419598,47.43608,1.4044942,47.436295,48.201065
14,14,2,5,3,1,0.750000,1.0,13.0,48.21275,3,999.0,999.0,4.0,48.51773,49.534237,1.3214897,49.53445,50.299374
15,15,2,5,3,2,0.750000,1.0,14.0,50.3111,num_2,999.0,999.0,1.0,51.365635,52.381542,2.0704434,52.381767,53.146996
16,16,2,5,3,1,8,1.0,15.0,53.159092,0,999.0,999.0,3.0,55.662445,56.677853,3.518764,56.67807,64.687935
17,17,3,6,3,3,0.750000,1.0,16.0,64.70457,--,--,--,--,--,--,--,--,--
18,18,3,6,3,3,0.750000,0.0,--,--,--,--,--,--,--,--,--,--,--
19,19,3,6,3,3,0.750000,0.0,--,--,--,--,--,--,--,--,--,--,--
20,20,3,6,3,3,0.750000,0.0,--,--,--,--,--,--,--,--,--,--,--
21,21,3,6,3,1,0.750000,0.0,--,--,--,--,--,--,--,--,--,--,--
22,22,3,6,3,3,0.750000,0.0,--,--,--,--,--,--,--,--,--,--,--
23,23,3,6,3,2,0.750000,0.0,--,--,--,--,--,--,--,--,--,--,--
24,24,3,6,3,3,10,0.0,--,--,--,--,--,--,--,--,--,--,--
25,25,4,5,3,1,0.750000,0.0,--,--,--,--,--,--,--,--,--,--,--
26,26,4,5,3,1,0.750000,0.0,--,--,--,--,--,--,--,--,--,--,--
27,27,4,5,3,3,0.750000,0.0,--,--,--,--,--,--,--,--,--,--,--
28,28,4,5,3,2,0.750000,0.0,--,--,--,--,--,--,--,--,--,--,--
29,29,4,5,3,1,0.750000,0.0,--,--,--,--,--,--,--,--,--,--,--
30,30,4,5,3,1,0.750000,0.0,--,--,--,--,--,--,--,--,--,--,--
31,31,4,5,3,1,0.750000,0.0,--,--,--,--,--,--,--,--,--,--,--
32,32,4,5,3,1,8,0.0,--,--,--,--,--,--,--,--,--,--,--
33,33,5,2,1,3,0.750000,0.0,--,--,--,--,--,--,--,--,--,--,--
34,34,5,2,1,3,0.750000,0.0,--,--,--,--,--,--,--,--,--,--,--
35,35,5,2,1,3,0.750000,0.0,--,--,--,--,--,--,--,--,--,--,--
36,36,5,2,1,1,0.750000,0.0,--,--,--,--,--,--,--,--,--,--,--
37,37,5,2,1,3,0.750000,0.0,--,--,--,--,--,--,--,--,--,--,--
38,38,5,2,1,1,0.750000,0.0,--,--,--,--,--,--,--,--,--,--,--
39,39,5,2,1,3,0.750000,0.0,--,--,--,--,--,--,--,--,--,--,--
40,40,5,2,1,3,12,0.0,--,--,--,--,--,--,--,--,--,--,--
41,41,6,4,2,2,0.750000,0.0,--,--,--,--,--,--,--,--,--,--,--
42,42,6,4,2,3,0.750000,0.0,--,--,--,--,--,--,--,--,--,--,--
43,43,6,4,2,3,0.750000,0.0,--,--,--,--,--,--,--,--,--,--,--
44,44,6,4,2,3,0.750000,0.0,--,--,--,--,--,--,--,--,--,--,--
45,45,6,4,2,3,0.750000,0.0,--,--,--,--,--,--,--,--,--,--,--
46,46,6,4,2,3,0.750000,0.0,--,--,--,--,--,--,--,--,--,--,--
47,47,6,4,2,2,0.750000,0.0,--,--,--,--,--,--,--,--,--,--,--
48,48,6,4,2,3,10,0.0,--,--,--,--,--,--,--,--,--,--,--
49,49,7,3,2,1,0.750000,0.0,--,--,--,--,--,--,--,--,--,--,--
50,50,7,3,2,2,0.750000,0.0,--,--,--,--,--,--,--,--,--,--,--
51,51,7,3,2,1,0.750000,0.0,--,--,--,--,--,--,--,--,--,--,--
52,52,7,3,2,1,0.750000,0.0,--,--,--,--,--,--,--,--,--,--,--
53,53,7,3,2,1,0.750000,0.0,--,--,--,--,--,--,--,--,--,--,--
54,54,7,3,2,3,0.750000,0.0,--,--,--,--,--,--,--,--,--,--,--
55,55,7,3,2,1,0.750000,0.0,--,--,--,--,--,--,--,--,--,--,--
56,56,7,3,2,1,12,0.0,--,--,--,--,--,--,--,--,--,--,--
57,57,8,4,2,3,0.750000,0.0,--,--,--,--,--,--,--,--,--,--,--
58,58,8,4,2,3,0.750000,0.0,--,--,--,--,--,--,--,--,--,--,--
59,59,8,4,2,3,0.750000,0.0,--,--,--,--,--,--,--,--,--,--,--
60,60,8,4,2,1,0.750000,0.0,--,--,--,--,--,--,--,--,--,--,--
61,61,8,4,2,3,0.750000,0.0,--,--,--,--,--,--,--,--,--,--,--
62,62,8,4,2,2,0.750000,0.0,--,--,--,--,--,--,--,--,--,--,--
63,63,8,4,2,3,0.750000,0.0,--,--,--,--,--,--,--,--,--,--,--
64,64,8,4,2,3,10,0.0,--,--,--,--,--,--,--,--,--,--,--
65,65,9,6,3,2,0.750000,0.0,--,--,--,--,--,--,--,--,--,--,--
66,66,9,6,3,2,0.750000,0.0,--,--,--,--,--,--,--,--,--,--,--
67,67,9,6,3,3,0.750000,0.0,--,--,--,--,--,--,--,--,--,--,--
68,68,9,6,3,3,0.750000,0.0,--,--,--,--,--,--,--,--,--,--,--
69,69,9,6,3,3,0.750000,0.0,--,--,--,--,--,--,--,--,--,--,--
70,70,9,6,3,3,0.750000,0.0,--,--,--,--,--,--,--,--,--,--,--
71,71,9,6,3,3,0.750000,0.0,--,--,--,--,--,--,--,--,--,--,--
72,72,9,6,3,3,8,0.0,--,--,--,--,--,--,--,--,--,--,--
﻿TrialNumber,Trialn,Blockn,BlockType,Partner,Feedback,ITI,ran,order,decision_onset,resp,resp_onset,rt,outcome_val,outcome_onset,outcome_offset,trialDuration,ITIonset,ITIoffset
1,1,1,1,1,1,0.750000,1.0,0.0,4.0544724,3,4.6782956,0.62382287,1.0,6.5997353,7.619453,3.5649805,7.6197853,8.374367
2,2,1,1,1,1,0.750000,1.0,1.0,8.387105,0,999.0,999.0,4.0,10.889504,11.905958,3.5188527,11.906166,12.67072
3,3,1,1,1,1,0.750000,1.0,2.0,12.683628,3,13.570572,0.8869446,4.0,15.200987,16.206293,3.5226648,16.206528,16.96759
4,4,1,1,1,1,0.750000,1.0,3.0,16.979713,--,--,--,--,--,--,--,--,--
5,5,1,1,1,2,0.750000,0.0,--,--,--,--,--,--,--,--,--,--,--
6,6,1,1,1,1,0.750000,0.0,--,--,--,--,--,--,--,--,--,--,--
7,7,1,1,1,2,0.750000,0.0,--,--,--,--,--,--,--,--,--,--,--
8,8,1,1,1,1,12,0.0,--,--,--,--,--,--,--,--,--,--,--
9,9,2,5,3,3,0.750000,0.0,--,--,--,--,--,--,--,--,--,--,--
10,10,2,5,3,1,0.750000,0.0,--,--,--,--,--,--,--,--,--,--,--
11,11,2,5,3,1,0.750000,0.0,--,--,--,--,--,--,--,--,--,--,--
12,12,2,5,3,1,0.750000,0.0,--,--,--,--,--,--,--,--,--,--,--
13,13,2,5,3,1,0.750000,0.0,--,--,--,--,--,--,--,--,--,--,--
14,14,2,5,3,1,0.750000,0.0,--,--,--,--,--,--,--,--,--,--,--
15,15,2,5,3,2,0.750000,0.0,--,--,--,--,--,--,--,--,--,--,--
16,16,2,5,3,1,8,0.0,--,--,--,--,--,--,--,--,--,--,--
17,17,3,6,3,3,0.750000,0.0,--,--,--,--,--,--,--,--,--,--,--
18,18,3,6,3,3,0.750000,0.0,--,--,--,--,--,--,--,--,--,--,--
19,19,3,6,3,3,0.750000,0.0,--,--,--,--,--,--,--,--,--,--,--
20,20,3,6,3,3,0.750000,0.0,--,--,--,--,--,--,--,--,--,--,--
21,21,3,6,3,1,0.750000,0.0,--,--,--,--,--,--,--,--,--,--,--
22,22,3,6,3,3,0.750000,0.0,--,--,--,--,--,--,--,--,--,--,--
23,23,3,6,3,2,0.750000,0.0,--,--,--,--,--,--,--,--,--,--,--
24,24,3,6,3,3,10,0.0,--,--,--,--,--,--,--,--,--,--,--
25,25,4,5,3,1,0.750000,0.0,--,--,--,--,--,--,--,--,--,--,--
26,26,4,5,3,1,0.750000,0.0,--,--,--,--,--,--,--,--,--,--,--
27,27,4,5,3,3,0.750000,0.0,--,--,--,--,--,--,--,--,--,--,--
28,28,4,5,3,2,0.750000,0.0,--,--,--,--,--,--,--,--,--,--,--
29,29,4,5,3,1,0.750000,0.0,--,--,--,--,--,--,--,--,--,--,--
30,30,4,5,3,1,0.750000,0.0,--,--,--,--,--,--,--,--,--,--,--
31,31,4,5,3,1,0.750000,0.0,--,--,--,--,--,--,--,--,--,--,--
32,32,4,5,3,1,8,0.0,--,--,--,--,--,--,--,--,--,--,--
33,33,5,2,1,3,0.750000,0.0,--,--,--,--,--,--,--,--,--,--,--
34,34,5,2,1,3,0.750000,0.0,--,--,--,--,--,--,--,--,--,--,--
35,35,5,2,1,3,0.750000,0.0,--,--,--,--,--,--,--,--,--,--,--
36,36,5,2,1,1,0.750000,0.0,--,--,--,--,--,--,--,--,--,--,--
37,37,5,2,1,3,0.750000,0.0,--,--,--,--,--,--,--,--,--,--,--
38,38,5,2,1,1,0.750000,0.0,--,--,--,--,--,--,--,--,--,--,--
39,39,5,2,1,3,0.750000,0.0,--,--,--,--,--,--,--,--,--,--,--
40,40,5,2,1,3,12,0.0,--,--,--,--,--,--,--,--,--,--,--
41,41,6,4,2,2,0.750000,0.0,--,--,--,--,--,--,--,--,--,--,--
42,42,6,4,2,3,0.750000,0.0,--,--,--,--,--,--,--,--,--,--,--
43,43,6,4,2,3,0.750000,0.0,--,--,--,--,--,--,--,--,--,--,--
44,44,6,4,2,3,0.750000,0.0,--,--,--,--,--,--,--,--,--,--,--
45,45,6,4,2,3,0.750000,0.0,--,--,--,--,--,--,--,--,--,--,--
46,46,6,4,2,3,0.750000,0.0,--,--,--,--,--,--,--,--,--,--,--
47,47,6,4,2,2,0.750000,0.0,--,--,--,--,--,--,--,--,--,--,--
48,48,6,4,2,3,10,0.0,--,--,--,--,--,--,--,--,--,--,--
49,49,7,3,2,1,0.750000,0.0,--,--,--,--,--,--,--,--,--,--,--
50,50,7,3,2,2,0.750000,0.0,--,--,--,--,--,--,--,--,--,--,--
51,51,7,3,2,1,0.750000,0.0,--,--,--,--,--,--,--,--,--,--,--
52,52,7,3,2,1,0.750000,0.0,--,--,--,--,--,--,--,--,--,--,--
53,53,7,3,2,1,0.750000,0.0,--,--,--,--,--,--,--,--,--,--,--
54,54,7,3,2,3,0.750000,0.0,--,--,--,--,--,--,--,--,--,--,--
55,55,7,3,2,1,0.750000,0.0,--,--,--,--,--,--,--,--,--,--,--
56,56,7,3,2,1,12,0.0,--,--,--,--,--,--,--,--,--,--,--
57,57,8,4,2,3,0.750000,0.0,--,--,--,--,--,--,--,--,--,--,--
58,58,8,4,2,3,0.750000,0.0,--,--,--,--,--,--,--,--,--,--,--
59,59,8,4,2,3,0.750000,0.0,--,--,--,--,--,--,--,--,--,--,--
60,60,8,4,2,1,0.750000,0.0,--,--,--,--,--,--,--,--,--,--,--
61,61,8,4,2,3,0.750000,0.0,--,--,--,--,--,--,--,--,--,--,--
62,62,8,4,2,2,0.750000,0.0,--,--,--,--,--,--,--,--,--,--,--
63,63,8,4,2,3,0.750000,0.0,--,--,--,--,--,--,--,--,--,--,--
64,64,8,4,2,3,10,0.0,--,--,--,--,--,--,--,--,--,--,--
65,65,9,6,3,2,0.750000,0.0,--,--,--,--,--,--,--,--,--,--,--
66,66,9,6,3,2,0.750000,0.0,--,--,--,--,--,--,--,--,--,--,--
67,67,9,6,3,3,0.750000,0.0,--,--,--,--,--,--,--,--,--,--,--
68,68,9,6,3,3,0.750000,0.0,--,--,--,--,--,--,--,--,--,--,--
69,69,9,6,3,3,0.750000,0.0,--,--,--,--,--,--,--,--,--,--,--
70,70,9,6,3,3,0.750000,0.0,--,--,--,--,--,--,--,--,--,--,--
71,71,9,6,3,3,0.750000,0.0,--,--,--,--,--,--,--,--,--,--,--
72,72,9,6,3,3,8,0.0,--,--,--,--,--,--,--,--,--,--,--
﻿TrialNumber,Trialn,Blockn,BlockType,Partner,Feedback,ITI,ran,order,decision_onset,resp,resp_onset,rt,outcome_val,outcome_onset,outcome_offset,trialDuration,ITIonset,ITIoffset
1,1,1,1,1,1,0.750000,1.0,0.0,4.0278,2,4.9690905,0.9412904,3.0,6.545303,7.558134,3.530334,7.558486,8.316042
2,2,1,1,1,1,0.750000,1.0,1.0,8.329966,3,8.881865,0.551899,2.0,10.848099,11.85551,3.525544,11.8558655,12.6126795
3,3,1,1,1,1,0.750000,1.0,2.0,12.629261,3,13.045642,0.4163808,3.0,15.14694,16.15283,3.523569,16.153124,16.908224
4,4,1,1,1,1,0.750000,1.0,3.0,16.921272,2,17.558107,0.63683504,1.0,19.438902,20.445255,3.5239816,20.445518,21.20494
5,5,1,1,1,2,0.750000,1.0,4.0,21.217728,2,23.003723,1.7859963,1.0,23.73633,24.74242,3.5246935,24.74269,25.502142
6,6,1,1,1,1,0.750000,1.0,5.0,25.520088,2,26.334446,0.81435794,2.0,28.038065,29.043522,3.5234346,29.043903,29.797857
7,7,1,1,1,2,0.750000,1.0,6.0,29.811377,3,30.697475,0.88609904,3.0,32.328148,33.333885,3.52251,33.33415,34.094524
8,8,1,1,1,1,12,1.0,7.0,34.107742,3,34.6605,0.55275613,1.0,36.626213,37.63253,3.5247858,37.632797,49.648438
9,9,2,5,3,3,0.750000,1.0,8.0,49.67606,0,999.0,999.0,3.0,52.17989,53.196327,3.5202672,53.196587,53.961075
10,10,2,5,3,1,0.750000,1.0,9.0,53.974243,2,53.99522,0.020975359,4.0,56.49152,57.504276,3.5300336,57.50473,58.258255
11,11,2,5,3,1,0.750000,1.0,10.0,58.272034,2,59.04082,0.76878697,1.0,60.789597,61.79584,3.5238073,61.796337,62.554634
12,12,2,5,3,1,0.750000,1.0,11.0,62.567516,2,64.17064,1.6031239,1.0,65.08397,66.090324,3.5228114,66.0906,66.850685
13,13,2,5,3,1,0.750000,1.0,12.0,66.8635,2,67.46749,0.6039889,4.0,69.380905,70.38666,3.523155,70.386925,71.147705
14,14,2,5,3,1,0.750000,1.0,13.0,71.19656,3,71.79732,0.6007568,4.0,73.71437,74.71989,3.5233226,74.72015,75.4778
15,15,2,5,3,2,0.750000,1.0,14.0,75.49433,3,76.343216,0.8488839,3.0,78.01245,79.019684,3.5253563,79.01996,79.7732
16,16,2,5,3,1,8,1.0,15.0,79.78641,3,80.440125,0.6537216,3.0,82.30332,83.30907,3.522661,83.309326,91.31413
17,17,3,6,3,3,0.750000,1.0,16.0,91.329506,3,92.146866,0.8173627,2.0,93.84666,94.8521,3.5225883,94.85239,95.611015
18,18,3,6,3,3,0.750000,1.0,17.0,95.62577,0,999.0,999.0,2.0,98.14219,99.15926,3.5334911,99.15952,99.92349
19,19,3,6,3,3,0.750000,1.0,18.0,99.93618,--,--,--,--,--,--,--,--,--
20,20,3,6,3,3,0.750000,0.0,--,--,--,--,--,--,--,--,--,--,--
21,21,3,6,3,1,0.750000,0.0,--,--,--,--,--,--,--,--,--,--,--
22,22,3,6,3,3,0.750000,0.0,--,--,--,--,--,--,--,--,--,--,--
23,23,3,6,3,2,0.750000,0.0,--,--,--,--,--,--,--,--,--,--,--
24,24,3,6,3,3,10,0.0,--,--,--,--,--,--,--,--,--,--,--
25,25,4,5,3,1,0.750000,0.0,--,--,--,--,--,--,--,--,--,--,--
26,26,4,5,3,1,0.750000,0.0,--,--,--,--,--,--,--,--,--,--,--
27,27,4,5,3,3,0.750000,0.0,--,--,--,--,--,--,--,--,--,--,--
28,28,4,5,3,2,0.750000,0.0,--,--,--,--,--,--,--,--,--,--,--
29,29,4,5,3,1,0.750000,0.0,--,--,--,--,--,--,--,--,--,--,--
30,30,4,5,3,1,0.750000,0.0,--,--,--,--,--,--,--,--,--,--,--
31,31,4,5,3,1,0.750000,0.0,--,--,--,--,--,--,--,--,--,--,--
32,32,4,5,3,1,8,0.0,--,--,--,--,--,--,--,--,--,--,--
33,33,5,2,1,3,0.750000,0.0,--,--,--,--,--,--,--,--,--,--,--
34,34,5,2,1,3,0.750000,0.0,--,--,--,--,--,--,--,--,--,--,--
35,35,5,2,1,3,0.750000,0.0,--,--,--,--,--,--,--,--,--,--,--
36,36,5,2,1,1,0.750000,0.0,--,--,--,--,--,--,--,--,--,--,--
37,37,5,2,1,3,0.750000,0.0,--,--,--,--,--,--,--,--,--,--,--
38,38,5,2,1,1,0.750000,0.0,--,--,--,--,--,--,--,--,--,--,--
39,39,5,2,1,3,0.750000,0.0,--,--,--,--,--,--,--,--,--,--,--
40,40,5,2,1,3,12,0.0,--,--,--,--,--,--,--,--,--,--,--
41,41,6,4,2,2,0.750000,0.0,--,--,--,--,--,--,--,--,--,--,--
42,42,6,4,2,3,0.750000,0.0,--,--,--,--,--,--,--,--,--,--,--
43,43,6,4,2,3,0.750000,0.0,--,--,--,--,--,--,--,--,--,--,--
44,44,6,4,2,3,0.750000,0.0,--,--,--,--,--,--,--,--,--,--,--
45,45,6,4,2,3,0.750000,0.0,--,--,--,--,--,--,--,--,--,--,--
46,46,6,4,2,3,0.750000,0.0,--,--,--,--,--,--,--,--,--,--,--
47,47,6,4,2,2,0.750000,0.0,--,--,--,--,--,--,--,--,--,--,--
48,48,6,4,2,3,10,0.0,--,--,--,--,--,--,--,--,--,--,--
49,49,7,3,2,1,0.750000,0.0,--,--,--,--,--,--,--,--,--,--,--
50,50,7,3,2,2,0.750000,0.0,--,--,--,--,--,--,--,--,--,--,--
51,51,7,3,2,1,0.750000,0.0,--,--,--,--,--,--,--,--,--,--,--
52,52,7,3,2,1,0.750000,0.0,--,--,--,--,--,--,--,--,--,--,--
53,53,7,3,2,1,0.750000,0.0,--,--,--,--,--,--,--,--,--,--,--
54,54,7,3,2,3,0.750000,0.0,--,--,--,--,--,--,--,--,--,--,--
55,55,7,3,2,1,0.750000,0.0,--,--,--,--,--,--,--,--,--,--,--
56,56,7,3,2,1,12,0.0,--,--,--,--,--,--,--,--,--,--,--
57,57,8,4,2,3,0.750000,0.0,--,--,--,--,--,--,--,--,--,--,--
58,58,8,4,2,3,0.750000,0.0,--,--,--,--,--,--,--,--,--,--,--
59,59,8,4,2,3,0.750000,0.0,--,--,--,--,--,--,--,--,--,--,--
60,60,8,4,2,1,0.750000,0.0,--,--,--,--,--,--,--,--,--,--,--
61,61,8,4,2,3,0.750000,0.0,--,--,--,--,--,--,--,--,--,--,--
62,62,8,4,2,2,0.750000,0.0,--,--,--,--,--,--,--,--,--,--,--
63,63,8,4,2,3,0.750000,0.0,--,--,--,--,--,--,--,--,--,--,--
64,64,8,4,2,3,10,0.0,--,--,--,--,--,--,--,--,--,--,--
65,65,9,6,3,2,0.750000,0.0,--,--,--,--,--,--,--,--,--,--,--
66,66,9,6,3,2,0.750000,0.0,--,--,--,--,--,--,--,--,--,--,--
67,67,9,6,3,3,0.750000,0.0,--,--,--,--,--,--,--,--,--,--,--
68,68,9,6,3,3,0.750000,0.0,--,--,--,--,--,--,--,--,--,--,--
69,69,9,6,3,3,0.750000,0.0,--,--,--,--,--,--,--,--,--,--,--
70,70,9,6,3,3,0.750000,0.0,--,--,--,--,--,--,--,--,--,--,--
71,71,9,6,3,3,0.750000,0.0,--,--,--,--,--,--,--,--,--,--,--
72,72,9,6,3,3,8,0.0,--,--,--,--,--,--,--,--,--,--,--
﻿TrialNumber,Trialn,Blockn,BlockType,Partner,Feedback,ITI,ran,order,decision_onset,resp,resp_onset,rt,outcome_val,outcome_onset,outcome_offset,trialDuration,ITIonset,ITIoffset
1,1,1,1,1,1,0.750000,1.0,0.0,4.020151,2.0,4.577337,0.5571859,9.0,6.535945,7.549507,3.529356,7.549847,8.306987
2,2,1,1,1,1,0.750000,1.0,1.0,8.320389,3.0,8.940688,0.62029886,1.0,10.836439,11.843834,3.523445,11.84412,12.603219
3,3,1,1,1,1,0.750000,1.0,2.0,12.615922,2.0,12.987098,0.37117648,6.0,15.132263,16.141628,3.5257063,16.14189,16.89992
4,4,1,1,1,1,0.750000,1.0,3.0,16.914906,2.0,17.317184,0.40227932,7.0,19.431377,20.438524,3.523619,20.438782,21.196548
5,5,1,1,1,2,0.750000,1.0,4.0,21.210194,2.0,21.863121,0.6529283,5.0,23.727459,24.73839,3.5281968,24.73865,25.493935
6,6,1,1,1,1,0.750000,1.0,5.0,25.509445,2.0,25.85941,0.34996286,6.0,28.027122,29.03528,3.5258338,29.035551,29.789242
7,7,1,1,1,2,0.750000,1.0,6.0,29.802153,3.0,30.206444,0.4042903,5.0,32.318745,33.330994,3.5288393,33.331253,34.085976
8,8,1,1,1,1,12,1.0,7.0,34.102516,3.0,34.436123,0.33360946,4.0,36.618603,37.630356,3.5278404,37.630733,49.639404
9,9,2,5,3,3,0.750000,1.0,8.0,49.659122,2.0,50.40591,0.74678767,1.0,52.17691,53.187927,3.528807,53.188194,53.953117
10,10,2,5,3,1,0.750000,1.0,9.0,53.96844,3.0,54.60263,0.6341897,1.0,56.485046,57.493366,3.5249243,57.49363,58.24954
11,11,2,5,3,1,0.750000,1.0,10.0,58.271774,3.0,58.932533,0.66076005,2.0,60.789078,61.79612,3.524348,61.79659,62.562164
12,12,2,5,3,1,0.750000,1.0,11.0,62.575184,2.0,63.761448,1.1862646,9.0,65.093346,66.09996,3.524774,66.10022,66.85889
13,13,2,5,3,1,0.750000,1.0,12.0,66.87271,2.0,67.44272,0.5700078,9.0,69.38841,70.39428,3.5215654,70.39453,71.15517
14,14,2,5,3,1,0.750000,1.0,13.0,71.16809,2.0,71.887886,0.71979856,9.0,73.68619,74.6926,3.5245116,74.69287,75.45154
15,15,2,5,3,2,0.750000,1.0,14.0,75.46457,3.0,75.81924,0.35466412,5.0,77.98178,78.98921,3.5246403,78.98946,79.74783
16,16,2,5,3,1,8,1.0,15.0,79.76112,3.0,80.39797,0.6368524,2.0,82.278206,83.28685,3.5257282,83.28717,91.28888
17,17,3,6,3,3,0.750000,1.0,16.0,91.30232,2.0,92.95447,1.6521512,4.0,93.81863,94.82701,3.5246909,94.82749,95.584785
18,18,3,6,3,3,0.750000,1.0,17.0,95.597755,2.0,96.851166,1.2534155,3.0,98.11499,99.12305,3.525295,99.123344,99.8818
19,19,3,6,3,3,0.750000,1.0,18.0,99.89566,2.0,102.23012,2.3344636,2.0,102.41191,103.41745,3.5217896,103.417786,104.177925
20,20,3,6,3,3,0.750000,1.0,19.0,104.19129,3.0,104.76149,0.5701951,7.0,106.70846,107.71449,3.5231977,107.71476,108.47422
21,21,3,6,3,1,0.750000,1.0,20.0,108.4872,0.0,999.0,999.0,999.0,110.98955,112.00678,3.5195854,112.00704,112.770836
22,22,3,6,3,3,0.750000,1.0,21.0,112.783485,0.0,999.0,999.0,999.0,115.28625,116.30276,3.5192719,116.30302,117.06847
23,23,3,6,3,2,0.750000,1.0,22.0,117.086754,0.0,999.0,999.0,999.0,119.599335,120.61579,3.529038,120.61607,121.38085
24,24,3,6,3,3,10,1.0,23.0,121.396614,2.0,122.280716,0.88410354,4.0,123.9129,124.92219,3.5255744,124.92253,134.93628
25,25,4,5,3,1,0.750000,1.0,24.0,134.95242,2.0,136.18567,1.2332399,6.0,137.46925,138.48679,3.5343616,138.48724,139.24893
26,26,4,5,3,1,0.750000,1.0,25.0,139.26169,0.0,999.0,999.0,999.0,141.76413,142.78134,3.519667,142.7816,143.5455
27,27,4,5,3,3,0.750000,1.0,26.0,143.55847,2.0,146.0438,2.4853141,4.0,146.07579,147.08449,3.5260215,147.08476,147.84229
28,28,4,5,3,2,0.750000,1.0,27.0,147.85522,2.0,148.20865,0.35342982,5.0,150.37251,151.38057,3.5253472,151.38086,152.13849
29,29,4,5,3,1,0.750000,1.0,28.0,152.15132,2.0,152.73888,0.5875513,9.0,154.66853,155.67699,3.525658,155.67725,156.43529
30,30,4,5,3,1,0.750000,1.0,29.0,156.44853,2.0,157.60072,1.1521877,8.0,158.9658,159.97455,3.5260096,159.97481,160.7316
31,31,4,5,3,1,0.750000,1.0,30.0,160.74928,2.0,162.79697,2.0476933,8.0,163.26682,164.2733,3.5240295,164.2738,165.02792
32,32,4,5,3,1,8,1.0,31.0,165.0443,0.0,999.0,999.0,999.0,167.55978,168.57632,3.532022,168.57658,176.58495
33,33,5,2,1,3,0.750000,1.0,32.0,176.60423,0.0,999.0,999.0,999.0,179.11688,180.13304,3.528807,180.13333,180.89816
34,34,5,2,1,3,0.750000,1.0,33.0,180.91154,0.0,999.0,999.0,999.0,183.41335,184.42995,3.5184088,184.43024,185.19466
35,35,5,2,1,3,0.750000,1.0,34.0,185.20786,0.0,999.0,999.0,999.0,187.70993,188.72594,3.518072,188.7262,189.49138
36,36,5,2,1,1,0.750000,1.0,35.0,189.50598,0.0,999.0,999.0,999.0,192.00618,193.0227,3.516732,193.02296,193.78749
37,37,5,2,1,3,0.750000,1.0,36.0,193.8013,0.0,999.0,999.0,999.0,196.3027,197.31923,3.5179334,197.3197,198.084
38,38,5,2,1,1,0.750000,1.0,37.0,198.09697,0.0,999.0,999.0,999.0,200.59944,201.61586,3.5188906,201.61613,202.38075
39,39,5,2,1,3,0.750000,1.0,38.0,202.39401,2.0,202.6982,0.30418953,4.0,204.91135,205.92029,3.5262809,205.9208,206.67711
40,40,5,2,1,3,12,1.0,39.0,206.69392,0.0,999.0,999.0,999.0,209.20854,210.22519,3.5312772,210.2255,222.23068
41,41,6,4,2,2,0.750000,1.0,40.0,222.25806,0.0,999.0,999.0,999.0,224.7626,225.77975,3.52169,225.78004,226.54399
42,42,6,4,2,3,0.750000,1.0,41.0,226.55598,0.0,999.0,999.0,999.0,229.05933,230.07515,3.519169,230.07552,230.8407
43,43,6,4,2,3,0.750000,1.0,42.0,230.86182,0.0,999.0,999.0,999.0,233.37251,234.39009,3.5282757,234.39064,235.15361
44,44,6,4,2,3,0.750000,1.0,43.0,235.16992,0.0,999.0,999.0,999.0,237.68527,238.70152,3.5316055,238.70183,239.4673
45,45,6,4,2,3,0.750000,1.0,44.0,239.4881,0.0,999.0,999.0,999.0,241.99869,243.01459,3.526493,243.0149,243.77998
46,46,6,4,2,3,0.750000,1.0,45.0,243.79213,0.0,999.0,999.0,999.0,246.29489,247.31195,3.5198221,247.31241,248.07713
47,47,6,4,2,2,0.750000,1.0,46.0,248.09422,0.0,999.0,999.0,999.0,250.60924,251.62587,3.5316384,251.62617,252.38954
48,48,6,4,2,3,10,1.0,47.0,252.40184,0.0,999.0,999.0,999.0,254.90448,255.92058,3.518747,255.92107,265.9288
49,49,7,3,2,1,0.750000,1.0,48.0,265.9446,0.0,999.0,999.0,999.0,268.4606,269.4766,3.5320039,269.477,270.24164
50,50,7,3,2,2,0.750000,1.0,49.0,270.25375,0.0,999.0,999.0,999.0,272.75644,273.77316,3.519424,273.7735,274.53748
51,51,7,3,2,1,0.750000,1.0,50.0,274.54938,0.0,999.0,999.0,999.0,277.05334,278.06946,3.5200999,278.0698,278.8356
52,52,7,3,2,1,0.750000,1.0,51.0,278.85168,0.0,999.0,999.0,999.0,281.36597,282.38263,3.5309372,282.38324,283.14722
53,53,7,3,2,1,0.750000,1.0,52.0,283.15952,0.0,999.0,999.0,999.0,285.66257,286.6795,3.519975,286.67993,287.44376
54,54,7,3,2,3,0.750000,1.0,53.0,287.45636,0.0,999.0,999.0,999.0,289.95947,290.97473,3.5183585,290.9751,291.74042
55,55,7,3,2,1,0.750000,1.0,54.0,291.7528,0.0,999.0,999.0,999.0,294.25586,295.27332,3.5205119,295.27365,296.0367
56,56,7,3,2,1,12,1.0,55.0,296.04907,0.0,999.0,999.0,999.0,298.55212,299.56937,3.5202873,299.56964,311.57404
57,57,8,4,2,3,0.750000,1.0,56.0,311.58667,0.0,999.0,999.0,999.0,314.08957,315.10495,3.5182831,315.1053,315.87173
58,58,8,4,2,3,0.750000,1.0,57.0,315.8843,0.0,999.0,999.0,999.0,318.3858,319.4016,3.5173118,319.40195,320.1668
59,59,8,4,2,3,0.750000,1.0,58.0,320.17868,0.0,999.0,999.0,999.0,322.68262,323.6992,3.5205197,323.6995,324.46365
60,60,8,4,2,1,0.750000,1.0,59.0,324.47592,0.0,999.0,999.0,999.0,326.9789,327.99487,3.5189438,327.9952,328.76
61,61,8,4,2,3,0.750000,1.0,60.0,328.772,0.0,999.0,999.0,999.0,331.27567,332.2921,3.5200946,332.2924,333.05634
62,62,8,4,2,2,0.750000,1.0,61.0,333.06827,0.0,999.0,999.0,999.0,335.5718,336.5883,3.5200427,336.5886,337.35275
63,63,8,4,2,3,0.750000,1.0,62.0,337.36465,0.0,999.0,999.0,999.0,339.86856,340.88486,3.5202181,340.88516,341.64938
64,64,8,4,2,3,10,1.0,63.0,341.66125,0.0,999.0,999.0,999.0,344.16476,345.18152,3.5202596,345.1818,355.1883
65,65,9,6,3,2,0.750000,1.0,64.0,355.20688,2.0,357.50385,2.2969604,5.0,357.7245,358.73367,3.5268066,358.73395,359.48474
66,66,9,6,3,2,0.750000,1.0,65.0,359.50128,0.0,999.0,999.0,999.0,362.01688,363.03296,3.5316482,363.0332,363.79773
67,67,9,6,3,3,0.750000,1.0,66.0,363.8121,0.0,999.0,999.0,999.0,366.3128,367.33017,3.5180666,367.3304,368.09415
68,68,9,6,3,3,0.750000,1.0,67.0,368.10678,0.0,999.0,999.0,999.0,370.60953,371.62595,3.5191598,371.62646,372.39093
69,69,9,6,3,3,0.750000,1.0,68.0,372.40424,0.0,999.0,999.0,999.0,374.90558,375.92236,3.5181165,375.9226,376.6869
70,70,9,6,3,3,0.750000,1.0,69.0,376.7002,0.0,999.0,999.0,999.0,379.2022,380.2188,3.5185924,380.21906,380.9836
71,71,9,6,3,3,0.750000,1.0,70.0,380.99722,0.0,999.0,999.0,999.0,383.49902,384.51538,3.5181754,384.5159,385.2802
72,72,9,6,3,3,8,1.0,71.0,385.29498,0.0,999.0,999.0,999.0,387.79477,388.81226,3.5172837,388.8125,396.8203
