onset	duration	trial_type	rt	resp	gender
0.679246285464615	3.00675408868119	decision	1.812232767464593	right	B
4.22908810433	1.01678620814346	loss	n/a	n/a	n/a
11.2626544830855	3.00666865892708	decision	2.8330441396683455	left	B
14.8130746891256	1.01621899032034	win	n/a	n/a	n/a
21.8291919482872	3.00689144083299	decision	1.8115254810545594	right	B
25.3790838781279	1.01660659420304	loss	n/a	n/a	n/a
32.3955344043206	3.00699347350746	decision	1.8126369745004922	left	B
35.9457161314785	1.01669383514673	loss	n/a	n/a	n/a
38.7625014337245	3.00698834168725	decision	2.0662742329295725	right	B
42.3122683884576	1.00000815046951	loss	n/a	n/a	n/a
45.095662398031	3.00713535351679	decision	1.5496863548178226	left	B
48.6459857032169	1.01628298708238	win	n/a	n/a	n/a
51.4457795245107	3.00687030958943	decision	1.5495529272593558	left	B
54.995595684275	1.01680099987425	win	n/a	n/a	n/a
59.9129617889412	3.00714471144602	decision	2.315569361206144	left	B
63.4622294469737	1.01668870332651	loss	n/a	n/a	n/a
68.3791243289597	3.00690230820328	decision	2.5785885059740394	right	B
71.9290437290911	1.01645203563385	win	n/a	n/a	n/a
74.7457982406486	3.00702094379812	decision	1.549527268158272	left	B
78.2953445266467	1.00021040486172	win	n/a	n/a	n/a
83.1955265556462	3.00705535733141	decision	1.5496027362532914	left	B
86.7453273199499	1.01678137807176	loss	n/a	n/a	n/a
93.778905471554	3.00623517064378	decision	1.5493319570086896	right	B
97.3287904583849	1.0165984435007	loss	n/a	n/a	n/a
104.362120471196	3.00660315272398	decision	1.8122400124557316	left	B
107.912067643367	1.01677020895295	win	n/a	n/a	n/a
114.945348752895	3.00778920878656	decision	2.067219998454675	right	B
118.495344224852	1.01661202777177	win	n/a	n/a	n/a
123.395327621838	3.00698653049767	decision	2.3164991275407374	left	B
126.945211702958	0.999999396270141	win	n/a	n/a	n/a
129.728769327281	3.00695543759502	decision	1.5494946660473943	right	B
133.278710160404	1.00014248373918	win	n/a	n/a	n/a
136.045474331826	3.0070296979975	decision	1.8115632149856538	left	B
139.59494907409	1.00014399294741	loss	n/a	n/a	n/a
142.378715895815	3.00728598772548	decision	1.549804386915639	right	B
145.928661860758	1.01648463774472	loss	n/a	n/a	n/a
155.045310415095	3.00711331679486	decision	1.812637276481837	right	B
158.594874813454	1.00012829573825	loss	n/a	n/a	n/a
163.495074954815	3.00783298001625	decision	1.5499347955919802	left	B
167.045125971315	1.01657610479742	win	n/a	n/a	n/a
169.845297132852	3.00747043150477	decision	1.8119662143290043	left	B
173.395055031171	1.01665610121563	loss	n/a	n/a	n/a
180.411827051314	3.00802466901951	decision	1.2996612994465977	right	B
183.961553554982	1.00025508203544	loss	n/a	n/a	n/a
186.744935489725	3.00685400865041	decision	1.5503100228961557	left	B
190.295409127371	1.01607288396917	win	n/a	n/a	n/a
193.078405269422	3.06935302750207	decision-missed	n/a	n/a	B
196.694945149822	1.00009146728553	win	n/a	n/a	n/a
203.695108764572	3.00797123764642	decision	1.3002861747518182	right	B
207.244904698804	1.00053038960323	loss	n/a	n/a	n/a
214.262209523469	3.0074489985127	decision	1.2991236648522317	left	B
217.811474464601	1.00024512014352	loss	n/a	n/a	n/a
222.728235315299	3.00687544164248	decision	2.066305023850873	right	B
226.278174940962	1.01646380848251	loss	n/a	n/a	n/a
229.078408590052	3.00806149747223	decision	1.5496474131941795	left	B
232.628166790353	1.00003682845272	loss	n/a	n/a	n/a
239.644775195746	3.00734455091879	decision	1.2999809819739312	right	B
243.194902283838	1.01641732035205	loss	n/a	n/a	n/a
246.011447296012	3.0072642529849	decision	1.5498255179263651	right	B
249.561540574534	1.01666636485606	win	n/a	n/a	n/a
252.361547819572	3.00727210147306	decision	1.299853591946885	left	B
255.911614533281	1.01633551274426	loss	n/a	n/a	n/a
258.711402015295	3.00750182615593	decision	1.2999719257932156	right	B
262.261214854429	1.00013071065769	win	n/a	n/a	n/a
267.145011863438	3.00676284311339	decision	1.0493878033012152	left	B
270.69426986156	1.00027802446857	win	n/a	n/a	n/a
273.478038192727	3.00727753527462	decision	1.5498554033692926	left	B
277.028273954988	1.01608797768131	win	n/a	n/a	n/a
281.945057748118	3.00677189929411	decision	1.5492607150226831	left	B
285.49447302171	1.01650003320538	win	n/a	n/a	n/a
292.527982346481	3.00710848672315	decision	1.299595189280808	right	B
296.077899029711	1.01681307470426	win	n/a	n/a	n/a
303.111287605716	3.00737624755129	decision	1.5497102027293295	right	B
306.66111584031	1.01663164957426	win	n/a	n/a	n/a
309.49445822998	3.00712871225551	decision	1.2996616011951119	left	B
313.044482077705	1.00001207506284	loss	n/a	n/a	n/a
315.861091690604	3.00693974015303	decision	1.5495803975500166	right	B
319.410780460341	1.00039666006342	win	n/a	n/a	n/a
324.310980601702	3.00654670246877	decision	1.550155766075477	right	B
327.861067842692	1.0000812036451	loss	n/a	n/a	n/a
334.894303067587	3.00713897589594	decision	1.3007927164435387	left	B
338.444038325688	1.00022942293435	win	n/a	n/a	n/a
345.477801223053	3.0062563016545	decision	1.8121361685916781	right	B
349.027710963273	1.01648614718579	win	n/a	n/a	n/a
362.360906039132	3.00657055061311	decision	1.5500745624303818	left	B
365.910867097788	1.01669715554453	loss	n/a	n/a	n/a
370.844226090237	3.00701007642783	decision	1.5507000414654613	right	B
374.394149716478	1.00049839098938	win	n/a	n/a	n/a
379.277702510823	3.0076844592113	decision	1.811944177839905	right	B
382.827445013914	1.01667572278529	loss	n/a	n/a	n/a
387.727736924309	3.00682804756798	decision	1.5494327822234482	right	B
391.277416939847	1.01647527958266	loss	n/a	n/a	n/a
398.31080642133	3.00739858602174	decision	1.2998131411150098	left	B
401.860657296376	1.01663708337583	loss	n/a	n/a	n/a
404.67768983217	3.00723919761367	decision	1.3001980283297598	right	B
408.227386148879	1.01663255505264	loss	n/a	n/a	n/a
415.260830571176	3.00603412347846	decision	2.0660348481032997	right	B
418.810458362801	1.01676658634096	win	n/a	n/a	n/a
421.627314907033	3.00656149443239	decision	1.8122188814450055	right	B
425.177120803157	1.00026896805502	loss	n/a	n/a	n/a
430.077585686464	3.00672571267933	decision	1.5492586018517613	left	B
433.627243967028	1.00005675200373	loss	n/a	n/a	n/a
436.410827854183	3.00678427610546	decision	1.299478063127026	right	B
439.960396478884	1.00005886517465	win	n/a	n/a	n/a
442.744037118042	3.00753442873247	decision	1.5497277113609016	right	B
446.293825203786	1.01648343028501	win	n/a	n/a	n/a
449.093828826211	3.00773638114333	decision	1.550522540928796	right	B
452.643538123462	1.00007063802332	win	n/a	n/a	n/a
457.527416939847	3.00736085185781	decision	1.5498200841248035	right	B
461.077102992684	1.00005041272379	win	n/a	n/a	n/a
465.977394299349	3.00812428677455	decision	1.2999109476804733	left	B
469.527038995875	1.01647286466323	loss	n/a	n/a	n/a
476.560580017278	3.00676676747389	decision	2.066157710039988	right	B
480.110473154346	1.01649973145686	loss	n/a	n/a	n/a
485.077213477809	3.08915192028508	decision	3.0826209150254726	right	B
488.710334293311	1.01658395351842	loss	n/a	n/a	n/a
491.543614798924	3.00725278165191	decision	1.5507525673601776	right	B
495.09342492139	1.01665489352308	win	n/a	n/a	n/a
497.893664607778	3.00737654929981	decision	2.3163134763017297	right	B
501.443277003942	1.00016452022828	win	n/a	n/a	n/a
