onset	duration	trial_type	rt	resp	gender
0.743253156077117	3.00683167017996	decision	1.55021704616956	left	B
4.29309980501421	1.00011954153888	loss	NaN	n/a	n/a
11.3598488827702	3.00751963676885	decision	1.54999486822635	right	B
14.9096680614166	1.00036828406155	win	NaN	n/a	n/a
21.9766082242131	3.00794225791469	decision	2.06653867289424	left	B
25.5263751789462	1.01666334597394	loss	NaN	n/a	n/a
32.6264258935116	3.00681385956705	decision	1.29943066905253	right	B
36.1765345674939	1.01648916583508	loss	NaN	n/a	n/a
39.0262580525596	3.00660013407469	decision	1.55030398536474	left	B
42.5762502038851	1.00002143299207	loss	NaN	n/a	n/a
45.3929847916588	3.00635350449011	decision	2.31744247837923	left	B
48.9432676460128	1.01617944496684	win	NaN	n/a	n/a
51.8097809616011	3.00700434087776	decision	1.30040088621899	left	B
55.3594917680603	1.00009297649376	win	NaN	n/a	n/a
60.3095080691855	3.00753140985034	decision	1.29981102794409	right	B
63.8596049700864	1.01648856210522	loss	NaN	n/a	n/a
68.793102521915	3.00695423013531	decision	1.29955383297056	left	B
72.3428444212768	1.01669896696694	win	NaN	n/a	n/a
75.2262212240603	3.00702396268025	decision	1.54953723005019	left	B
78.7761037957389	1.01689186342992	win	NaN	n/a	n/a
83.7263317094184	3.00703241489828	decision	1.29968273220584	right	B
87.2760440250859	1.00007456238382	loss	NaN	n/a	n/a
94.3429802637547	3.00638610660098	decision	1.29963503638282	left	B
97.893067504745	1.01636871881783	loss	NaN	n/a	n/a
104.942853175569	3.00724040484056	decision	1.54974703094922	left	B
108.492724879878	1.01655286084861	win	NaN	n/a	n/a
115.559457958443	3.00703090569004	decision	1.30064238398336	right	B
119.109115937026	1.0002227819059	win	NaN	n/a	n/a
124.042720049853	3.00729353446513	decision	1.30075709545054	left	B
127.592660580995	1.01656252075918	win	NaN	n/a	n/a
130.475932332454	3.00743752741255	decision	1.29969299584627	right	B
134.025882523507	1.01678983052261	win	NaN	n/a	n/a
136.842996866675	3.00738107739016	decision	1.04912758921273	left	B
140.392707673134	1.01639256672934	loss	NaN	n/a	n/a
143.259167859098	3.00781909399666	decision	1.299785368843	right	B
146.808960170951	1.00032028649002	loss	NaN	n/a	n/a
155.959329964593	3.0070037371479	decision	1.30060102744028	left	B
159.509017526871	1.00018293457106	loss	NaN	n/a	n/a
164.492566396948	3.00724644237198	decision	1.7997506535612	right	B
168.042563076364	1.00009569339454	win	NaN	n/a	n/a
170.909185065888	3.0074299806729	decision	1.54966733674519	left	B
174.458923946368	1.00000573555008	loss	NaN	n/a	n/a
181.525725550018	3.00724312174134	decision	1.54985842178576	left	B
185.075748492265	1.01683511142619	loss	NaN	n/a	n/a
187.942589942832	3.0064811964985	decision	1.30018353834748	right	B
191.492137436522	1.00004377146251	win	NaN	n/a	n/a
194.309240610339	3.00692464667372	decision	1.30049265548587	left	B
197.858939643716	1.01650818390772	win	NaN	n/a	n/a
204.942496664356	3.00802738592029	decision	1.29954990861006	left	B
208.492299541831	1.01651422120631	loss	NaN	n/a	n/a
215.542278410867	3.00683861295693	decision	1.30036556720734	right	B
219.092181509826	1.00022398913279	loss	NaN	n/a	n/a
224.042515380541	3.00661824620329	decision	1.29909166647121	left	B
227.592602017801	1.01629928825423	loss	NaN	n/a	n/a
230.458671279252	3.0068349908106	decision	1.81219533551484	right	B
234.008767274674	1.01658244431019	loss	NaN	n/a	n/a
241.075528125511	3.00682774558663	decision	1.2994285558816	left	B
244.625283910893	1.01640856591985	loss	NaN	n/a	n/a
247.525448431261	3.00636588130146	decision	1.55001298058778	right	B
251.075048450613	1.00016029411927	win	NaN	n/a	n/a
253.925388056785	3.00773426797241	decision	1.54950945777819	left	B
257.475276062265	1.00010203267448	loss	NaN	n/a	n/a
260.292100306135	3.00718425679952	decision	1.29969571274705	right	B
263.841979557183	1.01670681568794	win	NaN	n/a	n/a
268.825398018584	3.00716403126717	decision	1.54977148282342	right	B
272.375230781501	1.01677986863069	win	NaN	n/a	n/a
275.225417338312	3.00710244942456	decision	1.54978808574378	left	B
278.77541582915	1.01647980767302	win	NaN	n/a	n/a
283.708702372154	3.00803191401064	decision	1.54971593827941	left	B
287.258766972926	1.01633370155469	win	NaN	n/a	n/a
294.358375746524	3.00655485317111	decision	1.5500679211691	left	B
297.908595207613	1.01646561967209	win	NaN	n/a	n/a
304.992004008964	3.00730802444741	decision	1.81203292822465	left	B
308.541725682793	1.01661987649277	win	NaN	n/a	n/a
311.441945143975	3.00673899520189	decision	1.54933950351551	right	B
314.991745606298	1.01667904341593	loss	NaN	n/a	n/a
317.841731116408	3.00724825379439	decision	1.55011652270332	right	B
321.39196899184	1.01644116803072	win	NaN	n/a	n/a
326.375139615964	3.00691770366393	decision	1.29956107772887	left	B
329.925106711918	1.01642456511036	loss	NaN	n/a	n/a
337.008293637307	3.00726606394164	decision	1.29987200605683	right	B
340.558289411012	1.01658938731998	win	NaN	n/a	n/a
347.64183194167	3.00708645023406	decision	1.80062789423391	left	B
351.191572029842	1.00001781038009	win	NaN	n/a	n/a
364.575068977894	3.00676012621261	decision	1.8117379990872	left	B
368.12491472112	1.01667572278529	loss	NaN	n/a	n/a
373.108282769797	3.00686789466999	decision	1.79959971737117	right	B
376.658328956226	1.01623831014149	win	NaN	n/a	n/a
381.624842573656	3.00741005735472	decision	1.79977057711221	left	B
385.174671713961	1.01678922679275	loss	NaN	n/a	n/a
390.141552709974	3.00699769984931	decision	1.5494979864452	left	B
393.691064582672	1.00036375597119	loss	NaN	n/a	n/a
400.774737220258	3.00802195211872	decision	1.81269855657592	right	B
404.324558512075	1.01687526027672	loss	NaN	n/a	n/a
407.174768011319	3.00654881563969	decision	1.81283198390156	right	B
410.724446215434	1.00016965228133	loss	NaN	n/a	n/a
417.758108589565	3.00763646140695	decision	1.54959579301067	left	B
421.307985425694	1.01644599810243	win	NaN	n/a	n/a
424.158581321361	3.00672420370393	decision	1.54904336715117	right	B
427.708024367224	1.01637868047692	loss	NaN	n/a	n/a
432.64147995878	3.00692826905288	decision	1.29950432572514	left	B
436.191345927538	1.00002203672193	loss	NaN	n/a	n/a
439.041353474371	3.00722772628069	decision	1.29924290440977	left	B
442.591332947137	1.01627272320911	win	NaN	n/a	n/a
445.424936455907	3.00669069588184	decision	1.29923747084104	left	B
448.974335126579	1.01653927657753	win	NaN	n/a	n/a
451.824424178805	3.00711180735379	decision	1.29981012246571	left	B
455.374346597586	1.00002928171307	win	NaN	n/a	n/a
460.341329022776	3.00735692749731	decision	1.29962386703119	right	B
463.891103222268	1.01646954403259	win	NaN	n/a	n/a
468.857722796965	3.00772400409915	decision	1.29954115417786	left	B
472.407607481582	1.01672734296881	loss	NaN	n/a	n/a
479.52427294082	3.00695090950467	decision	1.54956137971021	right	B
483.074472780339	1.01641822583042	loss	NaN	n/a	n/a
488.007581822574	3.00730923190713	decision	1.30078335828148	left	B
491.557685968466	1.01665217685513	loss	NaN	n/a	n/a
494.424439574359	3.00730681675486	decision	1.5497585022822	right	B
497.974387350492	1.01650637248531	win	NaN	n/a	n/a
500.824445309816	3.0067338636145	decision	1.54927852540277	left	B
504.37455428578	1.01633098465391	win	NaN	n/a	n/a
