TrialNumber,Trialn,Blockn,BlockType,Partner,Feedback,ITI,ran,order,studyStart,InitFixOnset,decision_onset,resp,resp_onset,rt,outcome_val,outcome_onset,outcome_offset,trialDuration,ITIonset,ITIoffset
1,1,1,3,2,3,0.750000,1.0,0.0,3.6224956e-06,0.004884295,4.091423,2.0,4.71661,0.6251865,4.0,6.607997,7.6148086,3.5233855,7.615047,8.369258
2,2,1,3,2,1,0.750000,1.0,1.0,--,--,8.439237,3.0,8.886522,0.44728553,4.0,10.9574175,11.966702,3.527466,11.966892,12.723126
3,3,1,3,2,2,0.750000,1.0,2.0,--,--,12.792738,2.0,13.189975,0.3972372,5.0,15.310408,16.319647,3.5269086,16.319843,17.076473
4,4,1,3,2,1,0.750000,1.0,3.0,--,--,17.14507,2.0,17.51152,0.36645165,7.0,19.660843,20.670578,3.5255082,20.670815,21.430115
5,5,1,3,2,1,0.750000,1.0,4.0,--,--,21.50028,2.0,21.81386,0.31357962,7.0,24.017576,25.025705,3.5254252,25.025879,25.783203
6,6,1,3,2,1,0.750000,1.0,5.0,--,--,25.85219,3.0,26.467752,0.6155631,1.0,28.369177,29.37713,3.5249405,29.377314,30.13713
7,7,1,3,2,1,0.750000,1.0,6.0,--,--,30.206358,2.0,30.52109,0.31473124,8.0,32.723827,33.731617,3.52526,33.7318,34.49028
8,8,1,3,2,1,12,1.0,7.0,--,--,34.558037,2.0,34.874447,0.31640875,7.0,37.075306,38.083622,3.5255826,38.083805,50.086426
9,9,2,1,1,1,0.750000,1.0,8.0,--,--,50.093,2.0,50.93777,0.8447712,9.0,52.61068,53.617554,3.5245574,53.617744,54.373795
10,10,2,1,1,1,0.750000,1.0,9.0,--,--,54.37616,2.0,54.808403,0.4322414,9.0,56.89242,57.900246,3.5240843,57.900448,58.66035
11,11,2,1,1,1,0.750000,1.0,10.0,--,--,58.662785,2.0,59.111164,0.44838163,6.0,61.179672,62.18651,3.5237234,62.186695,62.947636
12,12,2,1,1,1,0.750000,1.0,11.0,--,--,62.95001,3.0,63.382393,0.4323857,1.0,65.465706,66.472496,3.52249,66.472694,67.23411
13,13,2,1,1,1,0.750000,1.0,12.0,--,--,67.2365,2.0,68.068794,0.832293,9.0,69.752914,70.75987,3.5233743,70.760056,71.52094
14,14,2,1,1,2,0.750000,1.0,13.0,--,--,71.523346,3.0,72.15588,0.63254374,5.0,74.03979,75.04897,3.5256302,75.04916,75.80767
15,15,2,1,1,3,0.750000,1.0,14.0,--,--,75.8105,2.0,76.42518,0.6146747,4.0,78.32859,79.33844,3.5279384,79.338615,80.09513
16,16,2,1,1,1,8,1.0,15.0,--,--,80.09756,2.0,80.912094,0.8145359,8.0,82.61517,83.624,3.5264428,83.62421,91.63738
17,17,3,6,3,3,0.750000,1.0,16.0,--,--,92.295944,2.0,94.02319,1.7272453,2.0,94.81254,95.82259,3.5266504,95.82283,96.57479
18,18,3,6,3,3,0.750000,1.0,17.0,--,--,97.205734,3.0,97.82611,0.62037796,9.0,99.72331,100.73036,3.5246253,100.73054,101.495514
19,19,3,6,3,2,0.750000,1.0,18.0,--,--,102.02526,2.0,102.447014,0.42175347,5.0,104.5425,105.551285,3.526025,105.55146,106.316185
20,20,3,6,3,3,0.750000,1.0,19.0,--,--,106.84841,3.0,107.317474,0.46906805,7.0,109.364944,110.37373,3.5253232,110.37392,111.13684
21,21,3,6,3,1,0.750000,1.0,20.0,--,--,111.674034,2.0,112.187996,0.51396644,6.0,114.190994,115.2007,3.5266693,115.20088,115.95705
22,22,3,6,3,3,0.750000,1.0,21.0,--,--,116.48881,3.0,116.925156,0.4363499,9.0,119.00644,120.01527,3.5264616,120.01545,120.77793
23,23,3,6,3,3,0.750000,1.0,22.0,--,--,121.31239,2.0,121.92912,0.61673015,3.0,123.83045,124.83779,3.5254014,124.837975,125.59863
24,24,3,6,3,3,12,1.0,23.0,--,--,126.12977,2.0,126.51661,0.38684464,2.0,128.64737,129.65489,3.5251226,129.65509,141.66206
25,25,4,5,3,3,0.750000,1.0,24.0,--,--,142.38025,2.0,143.26353,0.8832916,3.0,144.89731,145.90414,3.5238974,145.90433,146.66599
26,26,4,5,3,1,0.750000,1.0,25.0,--,--,147.19876,3.0,147.70033,0.5015731,1.0,149.71631,150.72604,3.5272865,150.72624,151.48677
27,27,4,5,3,1,0.750000,1.0,26.0,--,--,152.01677,2.0,152.38866,0.37188625,7.0,154.5337,155.54053,3.5237632,155.54071,156.30696
28,28,4,5,3,2,0.750000,1.0,27.0,--,--,156.83615,3.0,157.29175,0.45559546,5.0,159.35326,160.3621,3.5259619,160.3623,161.1281
29,29,4,5,3,1,0.750000,1.0,28.0,--,--,161.65727,2.0,162.07916,0.4218875,8.0,164.17523,165.18509,3.5278149,165.18527,165.94846
30,30,4,5,3,1,0.750000,1.0,29.0,--,--,166.47983,2.0,167.21661,0.73678994,6.0,168.99803,170.00607,3.5262477,170.00626,170.76907
31,31,4,5,3,1,0.750000,1.0,30.0,--,--,171.30292,3.0,171.7872,0.48428422,2.0,173.82019,174.82794,3.5250216,174.82812,175.58981
32,32,4,5,3,1,10,1.0,31.0,--,--,176.1317,2.0,176.50749,0.37580004,9.0,178.64836,179.65633,3.524641,179.65654,189.66792
33,33,5,2,1,3,0.750000,1.0,32.0,--,--,189.67441,2.0,190.4355,0.7611051,1.0,192.19211,193.20152,3.5271223,193.20172,193.95494
34,34,5,2,1,3,0.750000,1.0,33.0,--,--,193.95737,3.0,194.53885,0.58147657,9.0,196.47536,197.48216,3.5247881,197.48235,198.24147
35,35,5,2,1,3,0.750000,1.0,34.0,--,--,198.24396,2.0,198.60887,0.36492178,1.0,200.76208,201.76888,3.5249226,201.76906,202.52864
36,36,5,2,1,1,0.750000,1.0,35.0,--,--,202.53105,3.0,203.1298,0.5987542,1.0,205.04805,206.05688,3.5258222,206.05707,206.81546
37,37,5,2,1,3,0.750000,1.0,36.0,--,--,206.81787,2.0,207.93434,1.1164706,3.0,209.33499,210.3441,3.5262182,210.34435,211.10217
38,38,5,2,1,3,0.750000,1.0,37.0,--,--,211.10469,2.0,211.43654,0.3318447,1.0,213.62177,214.62892,3.5242338,214.62912,215.3894
39,39,5,2,1,3,0.750000,1.0,38.0,--,--,215.3918,2.0,215.78947,0.39767644,2.0,217.90901,218.91588,3.524081,218.91606,219.67555
40,40,5,2,1,2,12,1.0,39.0,--,--,219.67796,2.0,220.0432,0.36522695,5.0,222.19499,223.20485,3.5268898,223.20503,235.20529
41,41,6,4,2,3,0.750000,1.0,40.0,--,--,235.30148,2.0,236.44012,1.1386518,4.0,237.81776,238.82681,3.5253375,238.827,239.59193
42,42,6,4,2,3,0.750000,1.0,41.0,--,--,239.67711,3.0,240.09372,0.41661227,8.0,242.19489,243.2024,3.5252912,243.2026,243.96237
43,43,6,4,2,3,0.750000,1.0,42.0,--,--,244.02693,3.0,244.74709,0.7201498,8.0,246.5439,247.5506,3.5236728,247.55078,248.316
44,44,6,4,2,3,0.750000,1.0,43.0,--,--,248.38197,2.0,249.25053,0.8685509,3.0,250.89886,251.90598,3.5239959,251.90616,252.66995
45,45,6,4,2,2,0.750000,1.0,44.0,--,--,252.7374,3.0,253.354,0.6166015,5.0,255.25435,256.26358,3.5261877,256.26376,257.023
46,46,6,4,2,2,0.750000,1.0,45.0,--,--,257.08765,2.0,257.441,0.35337937,5.0,259.604,260.6107,3.5230644,260.61087,261.37692
47,47,6,4,2,3,0.750000,1.0,46.0,--,--,261.44254,2.0,261.99414,0.5516012,4.0,263.9599,264.96964,3.5270844,264.96982,265.73074
48,48,6,4,2,3,8,1.0,47.0,--,--,265.79974,3.0,266.11444,0.31471223,6.0,268.3172,269.32425,3.5245113,269.32446,277.33975
49,49,7,2,1,3,0.750000,1.0,48.0,--,--,277.3462,2.0,278.05746,0.71129286,1.0,279.8632,280.86993,3.5237432,280.87012,281.62708
50,50,7,2,1,3,0.750000,1.0,49.0,--,--,281.62946,2.0,282.04413,0.41466582,2.0,284.14737,285.1545,3.5250642,285.15472,285.91364
51,51,7,2,1,2,0.750000,1.0,50.0,--,--,285.916,2.0,286.23087,0.31489095,5.0,288.43372,289.44254,3.5265706,289.44272,290.20056
52,52,7,2,1,3,0.750000,1.0,51.0,--,--,290.2029,3.0,290.56805,0.36512372,7.0,292.71927,293.72833,3.525423,293.72855,294.48718
53,53,7,2,1,3,0.750000,1.0,52.0,--,--,294.4895,3.0,294.83765,0.34815758,7.0,297.00668,298.0145,3.5249853,298.01468,298.7741
54,54,7,2,1,1,0.750000,1.0,53.0,--,--,298.77652,3.0,299.25864,0.48210168,3.0,301.29367,302.30334,3.526808,302.30353,303.0611
55,55,7,2,1,3,0.750000,1.0,54.0,--,--,303.06345,2.0,304.24548,1.1820278,2.0,305.5805,306.5893,3.5258367,306.5895,307.3479
56,56,7,2,1,3,10,1.0,55.0,--,--,307.35034,2.0,307.7153,0.3649631,3.0,309.86823,310.8765,3.5261416,310.87668,320.8924
57,57,8,3,2,2,0.750000,1.0,56.0,--,--,320.98184,2.0,321.82684,0.8449843,5.0,323.4994,324.50815,3.5262847,324.50836,325.2627
58,58,8,3,2,2,0.750000,1.0,57.0,--,--,325.34857,2.0,325.7802,0.43164673,5.0,327.8662,328.87375,3.525195,328.87396,329.633
59,59,8,3,2,1,0.750000,1.0,58.0,--,--,329.6989,2.0,330.13403,0.43511856,9.0,332.21597,333.22473,3.5258267,333.2249,333.9864
60,60,8,3,2,1,0.750000,1.0,59.0,--,--,334.0523,3.0,334.55383,0.50152206,1.0,336.56952,337.5774,3.5250943,337.57758,338.3399
61,61,8,3,2,1,0.750000,1.0,60.0,--,--,338.40805,2.0,338.77383,0.36579448,7.0,340.92618,341.9344,3.5263202,341.9346,342.69366
62,62,8,3,2,1,0.750000,1.0,61.0,--,--,342.75873,2.0,343.0944,0.33566126,9.0,345.27548,346.28235,3.5236,346.28253,347.04697
63,63,8,3,2,1,0.750000,1.0,62.0,--,--,347.11203,2.0,347.69797,0.5859385,7.0,349.6295,350.63705,3.5250213,350.63727,351.4007
64,64,8,3,2,1,8,1.0,63.0,--,--,351.46527,2.0,351.7678,0.3025323,9.0,353.98175,354.98926,3.524006,354.98944,362.9934
65,65,9,1,1,1,0.750000,1.0,64.0,--,--,362.99954,2.0,363.4942,0.49467105,7.0,365.51743,366.52515,3.5255995,366.52536,367.28064
66,66,9,1,1,1,0.750000,1.0,65.0,--,--,367.28308,3.0,367.9149,0.6317993,2.0,369.8004,370.80725,3.5241745,370.80743,371.5672
67,67,9,1,1,1,0.750000,1.0,66.0,--,--,371.56955,2.0,371.9513,0.38172638,9.0,374.08694,375.09372,3.5241785,375.09393,375.85416
68,68,9,1,1,1,0.750000,1.0,67.0,--,--,375.85663,3.0,376.589,0.7323636,2.0,378.37286,379.3801,3.5234673,379.38025,380.14127
69,69,9,1,1,1,0.750000,1.0,68.0,--,--,380.14365,2.0,380.45807,0.31442788,7.0,382.66135,383.6681,3.5244396,383.66824,384.42767
70,70,9,1,1,1,0.750000,1.0,69.0,--,--,384.43008,3.0,384.71188,0.28180453,4.0,386.9483,387.95517,3.525096,387.95535,388.71494
71,71,9,1,1,2,0.750000,1.0,70.0,--,--,388.71735,2.0,389.3656,0.6482698,5.0,391.23434,392.24316,3.5258336,392.24335,393.00192
72,72,9,1,1,3,10,1.0,71.0,--,--,393.0042,2.0,393.3519,0.34768876,4.0,395.52228,396.53113,3.5269382,396.5313,406.5461
