TrialNumber,nTrial,Block,Endowment,ITI,ISI,L_Option,R_Option,ran,order,cue_Onset,endowment_onset,endowment_offset,ISI_onset,ISI_offset,decision_onset,resp,rt,resp_onset,decision_offset,trialDuration,ITIonset,ITIoffset
1,1,2,19,3,3,1,6,1.0,0.0,4.9904857,5.989714,6.006477,6.006817,9.023017,9.023213,2.0,1.0667516,10.089966,12.540322,3.5179236,12.541336,15.545616
2,2,1,23,3,1.5,10,1,1.0,1.0,16.540712,17.539623,17.556225,17.55652,19.072912,19.073078,2.0,1.0334902,20.106567,22.590038,3.5176504,22.590866,25.595594
3,3,1,19,1,1.5,6,9,1.0,2.0,26.590624,27.58951,27.606304,27.606602,29.123108,29.123274,2.0,1.466833,30.590105,32.640537,3.5179408,32.64135,33.646618
4,4,2,15,1,3,3,5,1.0,3.0,34.640537,35.63948,35.656384,35.656677,38.672974,38.673126,2.0,0.866844,39.53997,42.190643,3.51818,42.191433,43.195595
5,5,1,25,1,1.5,5,2,1.0,4.0,44.190582,45.189606,45.206234,45.206512,46.722992,46.723152,2.0,0.91677606,47.639927,50.240795,3.5183067,50.24161,51.246136
6,6,1,19,1,1.5,9,1,1.0,5.0,52.24066,53.239506,53.25639,53.256683,54.772846,54.773014,2.0,0.7836759,55.556686,58.28996,3.517631,58.29078,59.2954
7,7,3,15,1,1.5,3,0,1.0,6.0,60.290638,61.289787,61.30615,61.30639,62.822998,62.823196,3.0,1.8502437,64.67344,66.33966,3.517261,66.34061,67.34513
8,8,2,25,5,3,5,8,1.0,7.0,68.34055,69.339745,69.356415,69.356705,72.37393,72.37409,2.0,1.215948,73.59004,75.89139,3.5179667,75.89221,80.896545
9,9,3,21,3,1.5,9,0,1.0,8.0,81.890686,82.88953,82.90635,82.90659,84.42367,84.42385,2.0,1.8161135,86.23997,87.94035,3.517216,87.941216,90.9453
10,10,1,25,1,3,11,5,1.0,9.0,91.94063,92.93961,92.956474,92.95677,95.97368,95.97384,2.0,1.1497153,97.12355,99.490685,3.5175114,99.491486,100.49667
11,11,2,25,3,3,8,5,1.0,10.0,101.49069,102.48968,102.506165,102.50643,105.52406,105.524216,3.0,1.6324639,107.156685,109.04137,3.5178313,109.04221,112.04626
12,12,3,15,3,4.5,1,0,1.0,11.0,113.0407,114.039635,114.05762,114.05782,118.57271,118.5729,3.0,2.2839131,120.85681,122.08999,3.51776,122.0908,125.09513
13,13,1,19,1,3,9,4,1.0,12.0,126.09074,127.08963,127.10636,127.10664,130.12294,130.12311,2.0,1.48367,131.60678,133.64104,3.5186598,133.64192,134.6467
14,14,1,25,1,1.5,5,2,1.0,13.0,135.6407,136.63963,136.65628,136.65657,138.17357,138.17374,2.0,1.3162054,139.48994,141.69048,3.5174162,141.69131,142.69574
15,15,3,21,3,4.5,7,0,1.0,14.0,143.69066,144.68967,144.70633,144.70657,149.22304,149.22324,3.0,1.7834344,151.00667,152.73973,3.5171711,152.74054,155.74474
16,16,3,21,1,1.5,0,9,1.0,15.0,156.74078,157.73965,157.75653,157.75677,159.273,159.2732,3.0,1.8168002,161.09,162.79051,3.5179863,162.79132,163.79567
17,17,1,23,3,3,10,7,1.0,16.0,164.79079,165.78966,165.80635,165.80664,168.82306,168.82323,2.0,1.2832263,170.10646,172.34013,3.5175629,172.34091,175.34508
18,18,1,23,1,4.5,7,1,1.0,17.0,176.34068,177.3397,177.35654,177.35684,181.87314,181.8733,2.0,1.1003643,182.97366,185.38977,3.5171306,185.39056,186.39507
19,19,1,17,3,1.5,8,5,1.0,18.0,187.39073,188.38991,188.40656,188.40688,189.9238,189.92397,2.0,1.34948,191.27345,193.44174,3.5184488,193.44257,196.44699
20,20,3,23,5,1.5,1,0,1.0,19.0,197.4406,198.4397,198.45639,198.45662,199.97324,199.97343,3.0,1.4500829,201.42352,203.48972,3.5169563,203.49052,208.495
21,21,2,19,8,1.5,9,4,1.0,20.0,209.49095,210.48978,210.50659,210.50688,212.02408,212.02425,2.0,0.9824391,213.00668,215.54126,3.5176823,215.54205,223.54666
22,22,2,17,1,1.5,5,1,1.0,21.0,224.54091,225.5398,225.55661,225.55688,227.07324,227.07341,2.0,1.1835973,228.257,230.59027,3.517531,230.59108,231.59567
23,23,1,17,3,1.5,1,3,1.0,22.0,232.59105,233.58978,233.60638,233.60666,235.12341,235.12357,3.0,1.4165124,236.54008,238.63976,3.5168734,238.6406,241.64514
24,24,3,23,1,1.5,0,7,1.0,23.0,242.64075,243.63979,243.65671,243.65695,245.17343,245.17363,3.0,1.5164728,246.6901,248.69041,3.5174603,248.69122,249.69554
25,25,2,19,8,1.5,4,9,1.0,24.0,250.69052,251.68983,251.70656,251.70685,253.22328,253.22345,3.0,2.1667168,255.39017,256.74084,3.5180469,256.74164,264.74585
26,26,2,23,8,3,1,7,1.0,25.0,265.74078,266.73987,266.75662,266.7569,269.7732,269.77335,3.0,1.0999604,270.8733,273.29187,3.5191848,273.29266,281.29785
27,27,3,21,1,1.5,1,0,1.0,26.0,282.29065,283.28976,283.30655,283.3068,284.82327,284.8235,3.0,1.1000355,285.92352,288.33984,3.5170648,288.3407,289.34512
28,28,2,25,1,3,2,11,1.0,27.0,290.34082,291.33978,291.35663,291.35696,294.37387,294.37402,3.0,1.416138,295.79016,297.89075,3.5173817,297.89157,298.89587
29,29,2,21,3,1.5,7,9,1.0,28.0,299.89084,300.88986,300.9065,300.9068,302.42303,302.42322,3.0,1.3337739,303.757,305.94016,3.517603,305.94095,308.9459
30,30,2,17,1,3,8,1,1.0,29.0,309.94077,310.93985,310.95648,310.95676,313.97287,313.97302,2.0,1.3340042,315.307,317.4895,3.5171614,317.4903,318.49454
31,31,3,15,1,4.5,7,0,1.0,30.0,319.4909,320.48975,320.5064,320.50665,325.02408,325.0243,2.0,1.3824674,326.40674,328.54138,3.5177748,328.54218,329.5467
32,32,3,21,5,1.5,0,1,1.0,31.0,330.54086,331.53973,331.55646,331.55667,333.07312,333.0733,2.0,1.2838231,334.35715,336.5903,3.5176516,336.5911,341.59552
33,33,2,21,1,4.5,4,9,1.0,32.0,342.59073,343.5898,343.6065,343.6068,348.12314,348.1233,3.0,1.3503435,349.47363,351.63965,3.5170672,351.64053,352.6447
34,34,3,17,1,1.5,8,0,1.0,33.0,353.64087,354.63995,354.6572,354.65744,356.17245,356.17264,2.0,1.267605,357.44025,359.68964,3.5176795,359.69046,360.69568
35,35,3,23,5,1.5,1,0,1.0,34.0,361.69116,362.69,362.70667,362.7069,364.22394,364.22415,3.0,1.2994816,365.52362,367.74084,3.517369,367.74164,372.74695
36,36,1,17,5,4.5,5,1,1.0,35.0,373.74097,374.73987,374.75668,374.757,379.27402,379.27417,2.0,0.9494521,380.22363,382.79083,3.5173244,382.79166,387.79596
