TrialNumber,Trialn,Blockn,BlockType,Partner,Feedback,ITI,ran,order,studyStart,InitFixOnset,decision_onset,resp,resp_onset,rt,outcome_val,outcome_onset,outcome_offset,trialDuration,ITIonset,ITIoffset
1,1,1,1,1,2,0.750000,1.0,0.0,3.6224956e-06,0.0053681983,4.013716,2.0,5.3277335,1.314017,5.0,6.5300417,7.5427055,3.5289896,7.542937,8.293715
2,2,1,1,1,1,0.750000,1.0,1.0,--,--,8.296888,2.0,9.177319,0.8804301,7.0,10.814128,11.828088,3.5311992,11.828278,12.593817
3,3,1,1,1,3,0.750000,1.0,2.0,--,--,12.596053,2.0,14.24405,1.6479968,3.0,15.113914,16.126402,3.5303483,16.126587,16.876995
4,4,1,1,1,1,0.750000,1.0,3.0,--,--,16.879208,3.0,17.477303,0.5980948,4.0,19.395977,20.406956,3.5277476,20.407146,21.160439
5,5,1,1,1,1,0.750000,1.0,4.0,--,--,21.162611,3.0,22.277637,1.1150264,1.0,23.680109,24.689518,3.526907,24.689701,25.443602
6,6,1,1,1,1,0.750000,1.0,5.0,--,--,25.445845,3.0,27.044134,1.5982893,2.0,27.96297,28.972317,3.5264714,28.972502,29.72698
7,7,1,1,1,1,0.750000,1.0,6.0,--,--,29.729177,2.0,30.19405,0.46487245,9.0,32.246815,33.256214,3.5270371,33.256397,34.01034
8,8,1,1,1,1,12,1.0,7.0,--,--,34.012535,2.0,34.61086,0.59832424,8.0,36.529545,37.53966,3.5271263,37.53985,49.543545
9,9,2,3,2,1,0.750000,1.0,8.0,--,--,49.632427,3.0,50.477165,0.8447367,3.0,52.149887,53.15832,3.525893,53.15851,53.91021
10,10,2,3,2,1,0.750000,1.0,9.0,--,--,53.988243,2.0,55.0439,1.0556566,6.0,56.505646,57.515617,3.5273755,57.515804,58.27703
11,11,2,3,2,2,0.750000,1.0,10.0,--,--,58.336952,3.0,58.893883,0.5569303,5.0,60.85504,61.86828,3.531325,61.868534,62.628273
12,12,2,3,2,1,0.750000,1.0,11.0,--,--,62.70257,3.0,63.07721,0.37463945,1.0,65.22081,66.23042,3.527853,66.23064,66.99358
13,13,2,3,2,1,0.750000,1.0,12.0,--,--,67.05126,2.0,67.56066,0.5094029,7.0,69.56837,70.57654,3.525275,70.57672,71.32694
14,14,2,3,2,1,0.750000,1.0,13.0,--,--,71.382675,3.0,72.26057,0.8778884,4.0,73.900345,74.90882,3.52614,74.909004,75.66008
15,15,2,3,2,1,0.750000,1.0,14.0,--,--,75.71702,3.0,76.577126,0.86010987,3.0,78.23432,79.24351,3.5264912,79.24369,80.010124
16,16,2,3,2,3,10,1.0,15.0,--,--,80.06569,2.0,80.46068,0.39498535,1.0,82.583305,83.59261,3.526923,83.592804,93.59347
17,17,3,6,3,1,0.750000,1.0,16.0,--,--,93.88352,2.0,94.49388,0.6103599,7.0,96.401924,97.41177,3.5282547,97.411964,98.1766
18,18,3,6,3,3,0.750000,1.0,17.0,--,--,98.47155,3.0,98.8436,0.37204456,6.0,100.98874,101.9979,3.5263493,101.998085,102.76002
19,19,3,6,3,3,0.750000,1.0,18.0,--,--,103.01136,3.0,103.44378,0.43241814,8.0,105.52849,106.536964,3.5256014,106.53715,107.29328
20,20,3,6,3,3,0.750000,1.0,19.0,--,--,107.5296,2.0,108.643875,1.1142753,4.0,110.0466,111.05441,3.524811,111.054596,111.81009
21,21,3,6,3,1,0.750000,1.0,20.0,--,--,112.09374,2.0,113.92689,1.8331493,9.0,114.61074,115.62036,3.526625,115.620544,116.376656
22,22,3,6,3,3,0.750000,1.0,21.0,--,--,116.62029,3.0,116.97691,0.35661766,8.0,119.13869,120.14736,3.5270667,120.147545,120.90991
23,23,3,6,3,3,0.750000,1.0,22.0,--,--,121.145874,3.0,121.51039,0.36452007,7.0,123.66319,124.67176,3.525887,124.67194,125.42664
24,24,3,6,3,3,10,1.0,23.0,--,--,125.66416,3.0,126.110405,0.4462388,7.0,128.18166,129.18982,3.525657,129.19002,139.19313
25,25,4,3,2,1,0.750000,1.0,24.0,--,--,139.26709,2.0,140.74335,1.476266,6.0,141.78441,142.79391,3.5268197,142.7941,143.5601
26,26,4,3,2,1,0.750000,1.0,25.0,--,--,143.61592,3.0,143.92699,0.31107235,2.0,146.1326,147.14105,3.5251265,147.14124,147.89308
27,27,4,3,2,3,0.750000,1.0,26.0,--,--,147.94855,3.0,148.25987,0.31132108,6.0,150.46613,151.47574,3.5271828,151.47592,152.22655
28,28,4,3,2,3,0.750000,1.0,27.0,--,--,152.28287,3.0,152.5435,0.2606355,8.0,154.8005,155.80882,3.5259693,155.80902,156.5598
29,29,4,3,2,1,0.750000,1.0,28.0,--,--,156.61739,3.0,156.9603,0.34291536,3.0,159.13554,160.14621,3.5288284,160.1464,160.90973
30,30,4,3,2,1,0.750000,1.0,29.0,--,--,160.96501,3.0,162.06026,1.0952556,4.0,163.48213,164.49036,3.5253541,164.49055,165.24306
31,31,4,3,2,1,0.750000,1.0,30.0,--,--,165.29759,2.0,165.66023,0.36264426,8.0,167.8155,168.82417,3.526575,168.82436,169.57643
32,32,4,3,2,1,12,1.0,31.0,--,--,169.6315,3.0,170.82657,1.1950715,4.0,172.14848,173.15689,3.5254009,173.15709,185.1598
33,33,5,2,1,3,0.750000,1.0,32.0,--,--,185.16705,2.0,186.44345,1.276392,3.0,187.68422,188.69385,3.5267923,188.69403,189.45966
34,34,5,2,1,1,0.750000,1.0,33.0,--,--,189.46182,2.0,190.71,1.2481754,8.0,191.97879,192.98807,3.5262368,192.98824,193.74313
35,35,5,2,1,3,0.750000,1.0,34.0,--,--,193.74533,2.0,194.31018,0.5648496,4.0,196.26338,197.27222,3.526888,197.27242,198.02646
36,36,5,2,1,1,0.750000,1.0,35.0,--,--,198.02869,3.0,198.31012,0.28142756,4.0,200.54633,201.5562,3.527515,201.55638,202.30972
37,37,5,2,1,3,0.750000,1.0,36.0,--,--,202.31194,3.0,202.74316,0.4312354,9.0,204.8291,205.8385,3.5265658,205.8387,206.5931
38,38,5,2,1,3,0.750000,1.0,37.0,--,--,206.59537,3.0,207.15988,0.56451213,8.0,209.11235,210.12004,3.5246673,210.12022,210.87634
39,39,5,2,1,3,0.750000,1.0,38.0,--,--,210.87854,2.0,211.32689,0.44834948,1.0,213.39531,214.4035,3.524963,214.40369,215.15953
40,40,5,2,1,3,10,1.0,39.0,--,--,215.16179,2.0,215.77658,0.6147851,2.0,217.67932,218.68867,3.5268846,218.68887,228.69287
41,41,6,4,2,3,0.750000,1.0,40.0,--,--,228.76648,2.0,229.52676,0.76028395,3.0,231.28325,232.29195,3.52546,232.29213,233.04295
42,42,6,4,2,3,0.750000,1.0,41.0,--,--,233.11774,3.0,233.57648,0.45874324,6.0,235.63531,236.64291,3.525185,236.6431,237.40948
43,43,6,4,2,3,0.750000,1.0,42.0,--,--,237.46544,3.0,237.75992,0.29448083,7.0,239.98283,240.99121,3.5257764,240.99141,241.74274
44,44,6,4,2,2,0.750000,1.0,43.0,--,--,241.79971,2.0,242.3431,0.5433702,5.0,244.31706,245.32689,3.5271637,245.32707,246.09306
45,45,6,4,2,3,0.750000,1.0,44.0,--,--,246.14859,2.0,246.67645,0.52785605,3.0,248.66618,249.67578,3.5271971,249.67598,250.44278
46,46,6,4,2,3,0.750000,1.0,45.0,--,--,250.49864,3.0,250.85953,0.36087316,8.0,253.01756,254.02684,3.5281918,254.02702,254.79274
47,47,6,4,2,1,0.750000,1.0,46.0,--,--,254.84798,2.0,255.40953,0.56154835,9.0,257.3656,258.3762,3.5282032,258.37637,259.14288
48,48,6,4,2,3,8,1.0,47.0,--,--,259.1981,2.0,260.4597,1.2616087,2.0,261.71542,262.7252,3.527109,262.72537,270.72604
49,49,7,1,1,1,0.750000,1.0,48.0,--,--,270.72983,2.0,272.34277,1.6129409,6.0,273.24792,274.25696,3.5271444,274.25717,275.0093
50,50,7,1,1,1,0.750000,1.0,49.0,--,--,275.01154,2.0,275.74307,0.7315179,9.0,277.52863,278.53757,3.5260344,278.53775,279.2926
51,51,7,1,1,1,0.750000,1.0,50.0,--,--,279.29483,2.0,279.82645,0.53161734,6.0,281.81213,282.82016,3.5253325,282.82037,283.5761
52,52,7,1,1,1,0.750000,1.0,51.0,--,--,283.5783,3.0,283.7431,0.16478163,1.0,286.09616,287.1045,3.5261934,287.10468,287.85938
53,53,7,1,1,1,0.750000,1.0,52.0,--,--,287.8616,3.0,288.04303,0.18142204,4.0,290.37958,291.38785,3.5262609,291.38803,292.1426
54,54,7,1,1,1,0.750000,1.0,53.0,--,--,292.1448,2.0,292.45975,0.31493843,7.0,294.66254,295.67084,3.5260227,295.67102,296.42593
55,55,7,1,1,3,0.750000,1.0,54.0,--,--,296.42813,3.0,296.7263,0.2981658,7.0,298.94534,299.95496,3.5268097,299.95514,300.70923
56,56,7,1,1,3,12,1.0,55.0,--,--,300.71143,3.0,301.1763,0.4648619,9.0,303.2293,304.23767,3.5262518,304.23788,316.24268
57,57,8,5,3,1,0.750000,1.0,56.0,--,--,316.54697,2.0,318.07605,1.5291085,6.0,319.06418,320.07404,3.5270927,320.07425,320.82596
58,58,8,5,3,1,0.750000,1.0,57.0,--,--,321.14032,3.0,321.40958,0.26925427,1.0,323.65753,324.66547,3.5251555,324.66565,325.4259
59,59,8,5,3,1,0.750000,1.0,58.0,--,--,325.66376,3.0,326.27618,0.6124268,2.0,328.1819,329.19028,3.5265203,329.1905,329.94293
60,60,8,5,3,1,0.750000,1.0,59.0,--,--,330.17877,3.0,330.82584,0.6470664,3.0,332.6963,333.70486,3.52607,333.70505,334.45923
61,61,8,5,3,2,0.750000,1.0,60.0,--,--,334.69263,3.0,334.9595,0.26686975,5.0,337.21024,338.22052,3.5279021,338.2207,338.97577
62,62,8,5,3,1,0.750000,1.0,61.0,--,--,339.2109,3.0,339.54285,0.33191815,2.0,341.72882,342.7383,3.5273955,342.7385,343.4926
63,63,8,5,3,1,0.750000,1.0,62.0,--,--,343.72656,2.0,344.00937,0.2827869,6.0,346.24426,347.25348,3.5269082,347.25366,348.00912
64,64,8,5,3,2,8,1.0,63.0,--,--,348.24316,3.0,348.54257,0.29940227,5.0,350.76044,351.77045,3.5272837,351.77066,359.7757
65,65,9,2,1,3,0.750000,1.0,64.0,--,--,359.7802,2.0,361.176,1.3957922,4.0,362.2979,363.30783,3.5276322,363.30804,364.05902
66,66,9,2,1,3,0.750000,1.0,65.0,--,--,364.06125,2.0,364.77618,0.7149397,4.0,366.5789,367.58698,3.5257335,367.5872,368.34262
67,67,9,2,1,2,0.750000,1.0,66.0,--,--,368.34485,3.0,368.6262,0.2813331,5.0,370.86188,371.87137,3.5265262,371.87155,372.6273
68,68,9,2,1,3,0.750000,1.0,67.0,--,--,372.62973,3.0,372.9595,0.32977155,8.0,375.14725,376.15637,3.5266392,376.15656,376.9089
69,69,9,2,1,3,0.750000,1.0,68.0,--,--,376.91113,3.0,377.2926,0.38148138,6.0,379.42773,380.43576,3.524626,380.43594,381.1921
70,70,9,2,1,2,0.750000,1.0,69.0,--,--,381.19437,2.0,382.3593,1.1649649,5.0,383.7123,384.72232,3.5279543,384.7225,385.47556
71,71,9,2,1,3,0.750000,1.0,70.0,--,--,385.47775,2.0,385.85947,0.38171777,3.0,387.99533,389.00452,3.526756,389.0047,389.75897
72,72,9,2,1,3,8,1.0,71.0,--,--,389.76117,2.0,389.99243,0.23126149,4.0,392.27835,393.28647,3.5253139,393.28668,401.29233
