onset	duration	trial_type	rt	resp
0.0004253399674780667	0.6189542250940576	fixation_1	999	999
0.6195066538639367	3.006189919600729	face	1.8002061193692498	3
3.6257451751152985	0.6189542250940576	fixation_2	999	999
4.169184192433022	1.0169043217319995	feedback loss	999	999
5.186091532930732	5.316472280130256	ITI	999	999
10.508159343386069	0.6112081467290409	fixation_1	999	999
11.119513295125216	3.00517200154718	face	2.3160037721972913	3
14.124732690863311	0.6112081467290409	fixation_2	999	999
14.670070493535604	1.015844141424168	feedback win	999	999
15.685927011771128	5.3166485743713565	ITI	999	999
21.00690113392193	0.5957977977814153	fixation_1	999	999
21.602835076744668	3.0065446211374365	face	2.0667007985175587	2
24.609429808915593	0.5957977977814153	fixation_2	999	999
25.152488163497765	1.0002547813928686	feedback loss	999	999
26.152746265521273	5.3164429984171875	ITI	999	999
31.47345232387306	0.6125445414800197	fixation_1	999	999
32.08616470708512	3.0067915538093075	face	1.7977301515056752	3
35.09300395695027	0.6125445414800197	fixation_2	999	999
35.63587122550234	1.0166172399185598	feedback loss	999	999
36.652491785993334	1.117571945535019	ITI	999	999
37.77439924119972	0.5947720310650766	fixation_1	999	999
38.36932130344212	3.0058617829345167	face	2.5666612530476414	2
41.375233197410125	0.5947720310650766	fixation_2	999	999
41.919324865564704	1.00002837611828	feedback loss	999	999
42.91936561849434	1.117329842876643	ITI	999	999
44.04128454491729	0.6945207513635978	fixation_1	999	999
44.73593842261471	3.0057525046286173	face	2.566465638927184	2
47.74174707575003	0.6945207513635978	fixation_2	999	999
48.285997831320856	1.0166018443414941	feedback win	999	999
49.30260299623478	1.117511872726027	ITI	999	999
50.42448781093117	0.6115103222546168	fixation_1	999	999
51.03614756069146	3.0055511548998766	face	1.7994197384105064	3
54.04175124160247	0.6115103222546168	fixation_2	999	999
54.586077163752634	1.0165936936973594	feedback win	999	999
55.60267417808063	3.217027244681958	ITI	999	999
58.82421533972956	0.5950883946497925	fixation_1	999	999
59.41945708624553	3.006020870350767	face	2.0662407430354506	3
62.42553108633729	0.5950883946497925	fixation_2	999	999
62.969421102898195	1.016327743011061	feedback loss	999	999
63.98575186467497	3.2169876992120408	ITI	999	999
67.20717167312978	0.5953455910203047	fixation_1	999	999
67.8026682009804	3.0059239689144306	face	2.0670388970174827	3
70.80863896029769	0.5953455910203047	fixation_2	999	999
71.35267297056271	1.0165462995646521	feedback win	999	999
72.36923164699692	1.117486817180179	ITI	999	999
73.49132415070198	0.6112229385762475	fixation_1	999	999
74.10270195046905	3.006105394975748	face	2.5659932066337205	3
77.10885745642008	0.6112229385762475	fixation_2	999	999
77.65277464163955	1.0164273613481782	feedback win	999	999
78.66921437979909	3.2167920850915834	ITI	999	999
81.89062966016354	0.5953709483728744	fixation_1	999	999
82.48615758289816	3.00542285857955	face	2.3161305591347627	3
85.49163326935377	0.5953709483728744	fixation_2	999	999
86.0359558708733	1.0001717661507428	feedback loss	999	999
87.0361312594614	5.316271534189582	ITI	999	999
92.35767380980542	0.611379912821576	fixation_1	999	999
92.96926412859466	3.005446102877613	face	1.5500509562552907	2
95.97476366307819	0.611379912821576	fixation_2	999	999
96.51924474828411	1.00002837611828	feedback loss	999	999
97.51927674689796	5.316759362001903	ITI	999	999
102.84061824931996	0.6118037434644066	fixation_1	999	999
103.45258228771854	3.0054509328329004	face	2.316388057428412	2
106.45808544469764	0.6118037434644066	fixation_2	999	999
107.0025994341704	1.000183237309102	feedback win	999	999
108.00278689770494	5.317008105921559	ITI	999	999
113.32453260896727	0.6114469288149849	fixation_1	999	999
113.93612624838715	3.0055662486120127	face	2.5665848790085874	2
116.94174260803265	0.6114469288149849	fixation_2	999	999
117.48594113945728	1.0166812370880507	feedback win	999	999
118.5026259990409	3.2171081468695775	ITI	999	999
121.72445967630483	0.5947062225895934	fixation_1	999	999
122.31933917436982	3.0055891909869388	face	2.06736854306655	3
125.32497938204324	0.5947062225895934	fixation_2	999	999
125.86906984267989	1.000000603729859	feedback win	999	999
126.86907376704039	1.1183184791589156	ITI	999	999
127.99223158298992	0.6104697636910714	fixation_1	999	999
128.60287039598916	3.006449530890677	face	2.3166709130164236	2
131.60937033983646	0.6104697636910714	fixation_2	999	999
132.1526726083248	1.0163944571395405	feedback win	999	999
133.1690706879599	1.1181657310226	ITI	999	999
134.29213250800967	0.593852523888927	fixation_1	999	999
134.88614713802235	3.0055550792603754	face	2.0620169267058372	2
137.891755045217	0.593852523888927	fixation_2	999	999
138.4359602178447	1.016509772860445	feedback loss	999	999
139.45247300947085	1.1177165430271998	ITI	999	999
140.57519914605655	0.5942999006365426	fixation_1	999	999
141.16967292589834	3.0060308321844786	face	2.066062637604773	2
144.17575235973345	0.5942999006365426	fixation_2	999	999
144.71949053381104	1.016689085867256	feedback loss	999	999
145.7361826383858	7.416537665994838	ITI	999	999
153.15762665710645	0.6115866962936707	fixation_1	999	999
153.7693805914605	3.0053347114589997	face	1.8003476980957203	3
156.77476269711042	0.6115866962936707	fixation_2	999	999
157.31918944505742	1.0000316966907121	feedback loss	999	999
158.31922416051384	3.216656543838326	ITI	999	999
161.54082841379568	0.6116781640448608	fixation_1	999	999
162.15270792756928	3.0054995344835334	face	2.567391485441476	2
165.15826210117666	0.6116781640448608	fixation_2	999	999
165.70253489358583	1.016694217629265	feedback win	999	999
166.7192321299808	1.118502018332947	ITI	999	999
167.84274404373718	0.6097826992627233	fixation_1	999	999
168.45271118776873	3.006018153508194	face	2.316701100382488	3
171.45878398040077	0.6097826992627233	fixation_2	999	999
172.0024967971258	1.0002940249396488	feedback loss	999	999
173.00279414269608	5.317606419499498	ITI	999	999
178.32551309466362	0.6100507630617358	fixation_1	999	999
178.9357425669441	3.0059635143261403	face	1.8009755953098647	3
181.94176041852916	0.6100507630617358	fixation_2	999	999
182.48619078897173	1.0164358137990348	feedback loss	999	999
183.5026299234014	1.1175025146221742	ITI	999	999
184.62515652150614	0.594053269829601	fixation_1	999	999
185.21938789676642	3.0051973589579575	face	1.8002040062565356	3
188.22463355551008	0.594053269829601	fixation_2	999	999
188.76923056022497	1.0167814591550268	feedback win	999	999
189.78601534001064	1.1177346554468386	ITI	999	999
190.90887973475037	0.5937459624256007	fixation_1	999	999
191.5028258393868	3.0054889689781703	face	1.7993955885758623	2
194.5083615987678	0.5937459624256007	fixation_2	999	999
195.05292751046363	1.016211521695368	feedback win	999	999
196.06914265459636	5.316391378000844	ITI	999	999
201.39058166224277	0.6120035838684998	fixation_1	999	999
202.00278086023172	3.0054907801677473	face	1.5503655086504295	2
205.00831873272546	0.6120035838684998	fixation_2	999	999
205.55317202815786	1.0160140962689184	feedback loss	999	999
206.56919850123813	5.316703515360132	ITI	999	999
211.89106435823487	0.5948535369243473	fixation_1	999	999
212.48610324563924	3.006642126303632	face	1.7996422193245962	2
215.49279306799872	0.5948535369243473	fixation_2	999	999
216.0360080950195	1.000061582250055	feedback loss	999	999
217.03607269597705	3.2165128519991413	ITI	999	999
220.25798395479796	0.5947291649645194	fixation_1	999	999
220.8529054133105	3.005817105586175	face	1.799418832815718	2
223.8587720262003	0.5947291649645194	fixation_2	999	999
224.40258838556474	1.0166555778705515	feedback loss	999	999
225.41924758593086	1.1180132848094217	ITI	999	999
226.54252947191708	0.6100447255885229	fixation_1	999	999
227.15277826413512	3.0059284970047884	face	1.7996558035956696	3
230.15875415527262	0.6100447255885229	fixation_2	999	999
230.70274650701322	1.0165592801058665	feedback loss	999	999
231.7193088058848	5.317418050370179	ITI	999	999
237.0419495725655	0.6105247047380544	fixation_1	999	999
237.65266143903136	3.00529184541665	face	2.066358473733999	2
240.658006414189	0.6105247047380544	fixation_2	999	999
241.20243467151886	1.0002067834720947	feedback loss	999	999
242.20264447369846	1.1180953945149668	ITI	999	999
243.3261343506747	0.6097395312972367	fixation_1	999	999
243.93606919428566	3.005644735705573	face	2.066106409241911	2
246.94176222977694	0.6097395312972367	fixation_2	999	999
247.48625206935685	1.0162954425322823	feedback win	999	999
248.50255053059664	1.1185774867772125	ITI	999	999
249.62632748944452	0.6097808880149387	fixation_1	999	999
250.236287992273	3.00611505494453	face	2.566233799967449	2
253.24245647888165	0.6097808880149387	fixation_2	999	999
253.78633079800056	1.0161387700936757	feedback loss	999	999
254.8024819449056	1.1175960954860784	ITI	999	999
255.92569711687975	0.626801431120839	fixation_1	999	999
256.5527261607349	3.0070179590256885	face	2.0669419955811463	3
259.55979483458214	0.626801431120839	fixation_2	999	999
260.1030352189555	1.016467208683025	feedback win	999	999
261.1195060501341	3.216318445338402	ITI	999	999
264.34105264552636	0.7615587428444996	fixation_1	999	999
265.1028236055281	3.0059164220583625	face	2.0658972108503804	3
268.108789836755	0.7615587428444996	fixation_2	999	999
268.6525005403673	1.0000546391238458	feedback win	999	999
269.6525672544376	1.1175450787995942	ITI	999	999
270.7753607088234	0.5937749423319474	fixation_1	999	999
271.36932069971226	3.005385728145484	face	2.3173368463176303	3
274.3747601613286	0.5937749423319474	fixation_2	999	999
274.91936561849434	1.0165275834151544	feedback win	999	999
275.93589652254013	3.2166000934666954	ITI	999	999
279.1579825661611	0.944670480734203	fixation_1	999	999
280.1028833765304	3.005176227830816	face	2.815843175398186	2
283.1081121303723	0.944670480734203	fixation_2	999	999
283.652624610404	1.0167567055323161	feedback win	999	999
284.669384636567	5.317012935876846	ITI	999	999
289.9919478217489	0.6106363979633898	fixation_1	999	999
290.60280217253603	3.005401123664342	face	2.066262779815588	3
293.6082558222115	0.6106363979633898	fixation_2	999	999
294.1525261995848	1.016883190604858	feedback win	999	999
295.1694124088972	5.317328695789911	ITI	999	999
300.4923888591584	0.6102726402459666	fixation_1	999	999
301.1028963570716	3.0058131812838838	face	2.066207838826813	3
304.1087602531188	0.6102726402459666	fixation_2	999	999
304.65263668535044	1.0000193199375644	feedback win	999	999
305.65265932591865	1.1181023375829682	ITI	999	999
306.77623976493487	0.6098723557661287	fixation_1	999	999
307.3863397334353	3.0883203870034777	face	3.083176157786511	3
310.47475128626684	0.6098723557661287	fixation_2	999	999
311.01914362062234	1.0001059576752596	feedback loss	999	999
312.01926165324403	1.1174789684591815	ITI	999	999
313.14224800490774	0.594088287150953	fixation_1	999	999
313.73655243363464	3.005254413059447	face	2.0661900282721035	3
316.7418581652455	0.594088287150953	fixation_2	999	999
317.28600960440235	1.016760629892815	feedback win	999	999
318.30278291297145	3.2164087055716664	ITI	999	999
321.5249438213068	0.5942099422682077	fixation_1	999	999
322.1193801687914	3.0059055546298623	face	2.316749098303262	3
325.1253391550272	0.5942099422682077	fixation_2	999	999
325.66931460186606	1.0165828262688592	feedback loss	999	999
326.6859098049463	5.31672857090598	ITI	999	999
332.0083558631595	0.6108863494009711	fixation_1	999	999
332.61944748664973	3.0059118939680047	face	1.549970657855738	2
335.62540677475045	0.6108863494009711	fixation_2	999	999
336.1693641091115	1.0165662232902832	feedback win	999	999
337.1859336529742	5.316800416854676	ITI	999	999
342.50817775767064	0.6109660440706648	fixation_1	999	999
343.11935209453804	3.0064102874021046	face	2.0665803509764373	3
346.1258152098162	0.6109660440706648	fixation_2	999	999
346.66924154845765	1.0000473941327073	feedback win	999	999
347.66929196135607	11.616452597954776	ITI	999	999
359.2912619043491	0.9448989991215058	fixation_1	999	999
360.23637432814576	3.0063716475851834	face	2.0656741262064315	2
363.242798803607	0.9448989991215058	fixation_2	999	999
363.7860929215094	1.0164038152433932	feedback loss	999	999
364.80250005732523	3.2172548574744724	ITI	999	999
368.0256342063658	0.610299205116462	fixation_1	999	999
368.6361643448472	3.005573191680014	face	2.0662718360545114	3
371.64178493071813	0.610299205116462	fixation_2	999	999
372.18561215751106	1.0001919916830957	feedback win	999	999
373.1858074697666	3.216949663183186	ITI	999	999
376.40851507132174	0.5940393836353905	fixation_1	999	999
377.0027736152406	3.0054442916298285	face	1.8003594711772166	2
380.00827254605247	0.5940393836353905	fixation_2	999	999
380.5530259212828	1.0162085029296577	feedback loss	999	999
381.5692377448431	3.216539416811429	ITI	999	999
384.7917240729439	0.5941127389669418	fixation_1	999	999
385.38607921649236	3.0056118314969353	face	2.066664271755144	3
388.3917423664825	0.5941127389669418	fixation_2	999	999
388.9362388472655	1.016360949142836	feedback loss	999	999
389.9526034189039	5.316716194036417	ITI	999	999
395.27518743334804	0.6105633445549756	fixation_1	999	999
395.8859684288036	3.005762768385466	face	1.5507712268736213	2
398.89178311947035	0.6105633445549756	fixation_2	999	999
399.43575011380017	1.0004208118771203	feedback loss	999	999
400.436173944443	1.117597604810726	ITI	999	999
401.5599385264213	0.5926347654894926	fixation_1	999	999
402.1528066402534	3.0055789272882976	face	1.549456566979643	3
405.1584329616744	0.5926347654894926	fixation_2	999	999
405.70259526831796	1.000006037473213	feedback loss	999	999
406.7026046263636	5.316749702091329	ITI	999	999
412.02525867550867	0.610736318223644	fixation_1	999	999
412.63624947320204	3.005359465139918	face	2.3162754585500807	3
415.6416614643531	0.610736318223644	fixation_2	999	999
416.18589863565285	1.0166317297844216	feedback win	999	999
417.202533384203	1.1177871814579703	ITI	999	999
418.3261995553621	0.5932457578019239	fixation_1	999	999
418.91970432078233	3.0881525452132337	face	3.0830345790018328	2
422.00794622057583	0.5932457578019239	fixation_2	999	999
422.55260450561764	1.0167234994587488	feedback loss	999	999
423.5693310237839	3.216404177423101	ITI	999	999
426.7920174941537	0.5939774995786138	fixation_1	999	999
427.38622109708376	3.0054334242013283	face	2.066320135840215	3
430.3917061416432	0.5939774995786138	fixation_2	999	999
430.93595659540733	1.0001602948759682	feedback loss	999	999
431.93612021091394	1.1176465083262883	ITI	999	999
433.0600179192261	0.6092670990037732	fixation_1	999	999
433.6695117253694	3.006227955687791	face	2.066468959557824	2
436.67578647146	0.6092670990037732	fixation_2	999	999
437.2192644304596	1.0166552759474143	feedback win	999	999
438.23593178135343	1.1178342737839557	ITI	999	999
439.3600483480841	0.9259899343014695	fixation_1	999	999
440.28626287641237	3.005677941837348	face	2.316493411315605	2
443.2919900236884	0.9259899343014695	fixation_2	999	999
443.8360342976521	1.0165333190234378	feedback win	999	999
444.852571541036	1.1181729760137387	ITI	999	999
445.9770074900589	0.5922284435364418	fixation_1	999	999
446.5694623388117	3.3384402308729477	face	3.3331794784171507	2
449.90797049121466	0.5922284435364418	fixation_2	999	999
450.45267103856895	1.000056148506701	feedback win	999	999
451.45273020584136	3.216695787385106	ITI	999	999
454.6755953854299	0.6104154264903627	fixation_1	999	999
455.2862396321143	3.0052420363062993	face	2.5660433176672086	2
458.29153147758916	0.6104154264903627	fixation_2	999	999
458.8357943081064	1.0001364469062537	feedback win	999	999
459.8359340755851	3.216783028910868	ITI	999	999
463.0590166042675	0.5935639325762168	fixation_1	999	999
463.65283954446204	3.005900422751438	face	2.0661909339250997	3
466.65879007824697	0.5935639325762168	fixation_2	999	999
467.20267284981674	1.0000326023437083	feedback loss	999	999
468.2027087727911	5.316033657698426	ITI	999	999
473.5251140780747	0.6273601992288604	fixation_1	999	999
474.15274988801684	3.0052556205773726	face	2.317275867855642	3
477.1580577327404	0.6273601992288604	fixation_2	999	999
477.70264447369846	1.0002623282489367	feedback loss	999	999
478.7029188768938	3.2168406867422163	ITI	999	999
481.92656319239177	0.5929429784882814	fixation_1	999	999
482.51977091410663	3.0051451348117553	face	1.5491987668792717	3
485.52496495243395	0.5929429784882814	fixation_2	999	999
486.06929902517004	1.0165139990858734	feedback loss	999	999
487.08582600485533	1.1179221189813688	ITI	999	999
488.21005456667626	0.6090518630808219	fixation_1	999	999
488.8193388725049	3.0064160229521804	face	1.5503956960164942	2
491.82580410089577	0.6090518630808219	fixation_2	999	999
492.36930107790977	1.0165933918906376	feedback win	999	999
493.3858974885079	1.11764228210086	ITI	999	999
494.5101649920689	0.5924608862260357	fixation_1	999	999
495.1028876027558	3.0058270674198866	face	2.0668629046995193	3
498.10876538499724	0.5924608862260357	fixation_2	999	999
498.65245435369434	1.0000241498928517	feedback win	999	999
499.6524818241596	5.31691603444051	ITI	999	999
