TrialNumber,Trialn,Blockn,BlockType,Partner,Feedback,ITI,ran,order,studyStart,InitFixOnset,decision_onset,resp,resp_onset,rt,outcome_val,outcome_onset,outcome_offset,trialDuration,ITIonset,ITIoffset
1,1,1,2,1,3,0.750000,1.0,0.0,2.4999608e-06,0.00954,4.0153856,2.0,4.879218,0.8638327,2.0,6.534407,7.5420947,3.5267093,7.5422916,8.296164
2,2,1,2,1,2,0.750000,1.0,1.0,--,--,8.297796,2.0,8.679201,0.3814047,5.0,10.816262,11.824093,3.526297,11.824253,12.579645
3,3,1,2,1,3,0.750000,1.0,2.0,--,--,12.581268,2.0,13.412014,0.8307453,2.0,15.1003895,16.106989,3.525721,16.107145,16.86302
4,4,1,2,1,3,0.750000,1.0,3.0,--,--,16.864637,2.0,17.895702,1.0310645,3.0,19.383226,20.388866,3.5242283,20.389027,21.14602
5,5,1,2,1,1,0.750000,1.0,4.0,--,--,21.147621,2.0,22.013403,0.8657818,6.0,23.663387,24.669912,3.5222917,24.670053,25.42947
6,6,1,2,1,3,0.750000,1.0,5.0,--,--,25.43104,2.0,26.280203,0.8491631,2.0,27.947308,28.952755,3.5217164,28.952913,29.712978
7,7,1,2,1,3,0.750000,1.0,6.0,--,--,29.714537,2.0,30.379557,0.6650183,3.0,32.23068,33.23404,3.5195017,33.234184,33.996338
8,8,1,2,1,3,10,1.0,7.0,--,--,33.997925,2.0,34.296326,0.2984037,1.0,36.514664,37.52038,3.522456,37.52052,47.529915
9,9,2,4,2,2,0.750000,1.0,8.0,--,--,47.5573,2.0,48.546288,0.9889901,5.0,50.07527,51.08102,3.5237215,51.08118,51.8458
10,10,2,4,2,3,0.750000,1.0,9.0,--,--,51.867973,2.0,52.3636,0.4956305,3.0,54.384285,55.388985,3.5210114,55.389137,56.14579
11,11,2,4,2,3,0.750000,1.0,10.0,--,--,56.169243,2.0,56.896336,0.7270936,2.0,58.686302,59.691998,3.5227542,59.692154,60.44638
12,12,2,4,2,3,0.750000,1.0,11.0,--,--,60.468452,2.0,61.413258,0.944804,3.0,62.985424,63.988705,3.520252,63.98886,64.746025
13,13,2,4,2,3,0.750000,1.0,12.0,--,--,64.7692,2.0,67.12915,2.3599477,4.0,67.28663,68.2931,3.5239,68.29324,69.04606
14,14,2,4,2,3,0.750000,1.0,13.0,--,--,69.06802,2.0,70.39593,1.3279048,1.0,71.58626,72.590996,3.522967,72.59115,73.346054
15,15,2,4,2,3,0.750000,1.0,14.0,--,--,73.36908,2.0,73.828766,0.4596873,3.0,75.8873,76.89253,3.5234537,76.892685,77.6461
16,16,2,4,2,1,10,1.0,15.0,--,--,77.667854,0.0,999.0,999.0,999.0,80.17937,81.196,3.528144,81.19614,91.21314
17,17,3,1,1,1,0.750000,1.0,16.0,--,--,91.21699,3.0,91.79521,0.5782247,3.0,93.73526,94.742,3.5250027,94.74215,95.496
18,18,3,1,1,2,0.750000,1.0,17.0,--,--,95.49755,3.0,95.94667,0.4491206,5.0,98.01427,99.02001,3.5224583,99.02016,99.77934
19,19,3,1,1,1,0.750000,1.0,18.0,--,--,99.780945,3.0,100.18007,0.3991214,3.0,102.29727,103.30403,3.5230813,103.304184,104.06337
20,20,3,1,1,2,0.750000,1.0,19.0,--,--,104.065,2.0,104.41322,0.3482248,5.0,106.58141,107.586914,3.5219166,107.58707,108.346054
21,21,3,1,1,1,0.750000,1.0,20.0,--,--,108.34775,2.0,108.796326,0.4485802,9.0,110.86618,111.87212,3.5243764,111.872284,112.62955
22,22,3,1,1,1,0.750000,1.0,21.0,--,--,112.631165,2.0,112.86235,0.2311907,7.0,115.14829,116.154686,3.5235279,116.15485,116.91289
23,23,3,1,1,1,0.750000,1.0,22.0,--,--,116.91453,3.0,117.59546,0.6809293,1.0,119.432526,120.43837,3.5238407,120.43853,121.195885
24,24,3,1,1,1,12,1.0,23.0,--,--,121.19753,3.0,121.59659,0.3990544,2.0,123.714264,124.71941,3.5218747,124.71957,136.72949
25,25,4,5,3,1,0.750000,1.0,24.0,--,--,136.77307,2.0,137.57883,0.8057597,7.0,139.29094,140.29604,3.5229716,140.29619,141.06284
26,26,4,5,3,1,0.750000,1.0,25.0,--,--,141.10239,2.0,141.62958,0.527195,6.0,143.61928,144.62381,3.5214286,144.62398,145.37946
27,27,4,5,3,1,0.750000,1.0,26.0,--,--,145.41896,3.0,145.81343,0.3944599,2.0,147.93532,148.93959,3.5206277,148.93976,149.69597
28,28,4,5,3,1,0.750000,1.0,27.0,--,--,149.73671,3.0,150.11292,0.3762099,3.0,152.25389,153.26001,3.5233119,153.26016,154.01282
29,29,4,5,3,3,0.750000,1.0,28.0,--,--,154.05244,3.0,154.16252,0.1100639,6.0,156.57028,157.57602,3.5235612,157.57616,158.32945
30,30,4,5,3,1,0.750000,1.0,29.0,--,--,158.37045,3.0,158.6288,0.2583417,3.0,160.8883,161.89394,3.5234866,161.8941,162.64609
31,31,4,5,3,3,0.750000,1.0,30.0,--,--,162.68552,2.0,162.91296,0.2274522,2.0,165.2033,166.20901,3.5235038,166.20917,166.96278
32,32,4,5,3,1,8,1.0,31.0,--,--,167.00279,2.0,167.37967,0.3768753,9.0,169.52028,170.52686,3.524071,170.52701,178.52946
33,33,5,3,2,3,0.750000,1.0,32.0,--,--,178.55244,3.0,179.17935,0.6269067,8.0,181.07028,182.07701,3.5245655,182.07716,182.82896
34,34,5,3,2,1,0.750000,1.0,33.0,--,--,182.85216,3.0,183.2964,0.4442369,1.0,185.3682,186.37302,3.520856,186.37317,187.12961
35,35,5,3,2,2,0.750000,1.0,34.0,--,--,187.15126,3.0,187.57942,0.4281744,5.0,189.6689,190.67403,3.5227668,190.67418,191.42946
36,36,5,3,2,1,0.750000,1.0,35.0,--,--,191.45258,3.0,191.77972,0.3271536,1.0,193.96942,194.97488,3.522318,194.97504,195.72919
37,37,5,3,2,1,0.750000,1.0,36.0,--,--,195.7508,2.0,196.02942,0.2786376,9.0,198.26851,199.27306,3.5222647,199.2732,200.02925
38,38,5,3,2,1,0.750000,1.0,37.0,--,--,200.05147,3.0,200.56221,0.5107303,2.0,202.5689,203.57405,3.5225804,203.5742,204.3294
39,39,5,3,2,1,0.750000,1.0,38.0,--,--,204.35135,2.0,204.92952,0.5781747,9.0,206.86913,207.87505,3.523705,207.87521,208.62915
40,40,5,3,2,1,12,1.0,39.0,--,--,208.65208,2.0,209.02954,0.3774579,7.0,211.16931,212.17474,3.5226622,212.1749,224.179
41,41,6,6,3,2,0.750000,1.0,40.0,--,--,224.22104,2.0,225.06314,0.8420999,5.0,226.73726,227.7425,3.5214632,227.74266,228.49603
42,42,6,6,3,3,0.750000,1.0,41.0,--,--,228.53572,3.0,228.89557,0.3598574,7.0,231.0533,232.05861,3.5228882,232.05878,232.81267
43,43,6,6,3,3,0.750000,1.0,42.0,--,--,232.85222,3.0,233.26187,0.4096613,7.0,235.37132,236.37602,3.5237992,236.37616,237.12914
44,44,6,6,3,3,0.750000,1.0,43.0,--,--,237.17029,3.0,237.76295,0.5926709,9.0,239.6873,240.69203,3.5217493,240.69218,241.44603
45,45,6,6,3,3,0.750000,1.0,44.0,--,--,241.4855,2.0,241.69556,0.2100475,4.0,244.00305,245.00722,3.5217214,245.00739,245.76277
46,46,6,6,3,3,0.750000,1.0,45.0,--,--,245.80292,2.0,246.31215,0.5092362,4.0,248.32031,249.3257,3.5227852,249.3259,250.0791
47,47,6,6,3,3,0.750000,1.0,46.0,--,--,250.11871,3.0,250.4786,0.3598956,7.0,252.63837,253.64278,3.5240703,253.64294,254.39609
48,48,6,6,3,1,10,1.0,47.0,--,--,254.43723,2.0,254.76315,0.3259318,6.0,256.95547,257.96094,3.5237072,257.9611,267.96262
49,49,7,1,1,1,0.750000,1.0,48.0,--,--,267.96585,2.0,268.87943,0.9135679,9.0,270.48322,271.48798,3.5221217,271.48813,272.24597
50,50,7,1,1,1,0.750000,1.0,49.0,--,--,272.2476,3.0,272.67865,0.4310726,1.0,274.7654,275.76984,3.5222597,275.77,276.52908
51,51,7,1,1,1,0.750000,1.0,50.0,--,--,276.5307,3.0,276.9622,0.431499,3.0,279.04892,280.05426,3.5235462,280.05438,280.8126
52,52,7,1,1,3,0.750000,1.0,51.0,--,--,280.8142,3.0,281.27963,0.4654481,6.0,283.3313,284.33627,3.5220706,284.33643,285.09595
53,53,7,1,1,1,0.750000,1.0,52.0,--,--,285.09756,3.0,285.57867,0.4811065,1.0,287.61523,288.62152,3.5239737,288.62167,289.37912
54,54,7,1,1,1,0.750000,1.0,53.0,--,--,289.3807,3.0,289.86215,0.4814391,3.0,291.8993,292.90475,3.5240436,292.9049,293.66266
55,55,7,1,1,1,0.750000,1.0,54.0,--,--,293.66428,3.0,294.2626,0.5983397,2.0,296.1813,297.18747,3.523204,297.18768,297.94595
56,56,7,1,1,2,12,1.0,55.0,--,--,297.94754,3.0,298.31277,0.3652348,5.0,300.4634,301.4677,3.5201685,301.46786,313.47922
57,57,8,2,1,3,0.750000,1.0,56.0,--,--,313.4808,2.0,314.29614,0.8153512,3.0,315.9963,317.00064,3.519844,317.0008,317.76257
58,58,8,2,1,1,0.750000,1.0,57.0,--,--,317.7642,2.0,318.1454,0.381207,9.0,320.2818,321.28802,3.523855,321.2882,322.0459
59,59,8,2,1,3,0.750000,1.0,58.0,--,--,322.04755,2.0,322.6287,0.5811326,2.0,324.5653,325.5708,3.5232477,325.57095,326.32895
60,60,8,2,1,3,0.750000,1.0,59.0,--,--,326.33066,2.0,326.94608,0.6154218,2.0,328.8464,329.85205,3.5213873,329.8522,330.61252
61,61,8,2,1,2,0.750000,1.0,60.0,--,--,330.6141,2.0,330.97897,0.3648651,5.0,333.13165,334.13605,3.5219266,334.1362,334.89584
62,62,8,2,1,3,0.750000,1.0,61.0,--,--,334.89746,3.0,335.24612,0.3486776,9.0,337.41437,338.42102,3.5235722,338.42117,339.1791
63,63,8,2,1,3,0.750000,1.0,62.0,--,--,339.18076,3.0,339.6959,0.5151281,9.0,341.6978,342.70203,3.5212748,342.70218,343.46222
64,64,8,2,1,3,8,1.0,63.0,--,--,343.4638,3.0,344.0123,0.5484821,9.0,345.9823,346.98672,3.5229056,346.98688,354.99542
65,65,9,3,2,2,0.750000,1.0,64.0,--,--,355.01962,3.0,355.56256,0.542928,5.0,357.53632,358.54077,3.5211313,358.54092,359.2958
66,66,9,3,2,1,0.750000,1.0,65.0,--,--,359.31735,3.0,360.07864,0.761296,4.0,361.83524,362.84067,3.5233254,362.84085,363.5958
67,67,9,3,2,1,0.750000,1.0,66.0,--,--,363.6176,3.0,364.22858,0.6109449,3.0,366.1363,367.14114,3.5235045,367.1413,367.89572
68,68,9,3,2,2,0.750000,1.0,67.0,--,--,367.91763,3.0,368.69604,0.7784116,5.0,370.43423,371.4395,3.5218778,371.43964,372.19537
69,69,9,3,2,1,0.750000,1.0,68.0,--,--,372.2177,3.0,372.8786,0.660889,3.0,374.73547,375.74182,3.5240903,375.74197,376.49573
70,70,9,3,2,1,0.750000,1.0,69.0,--,--,376.51758,2.0,377.4124,0.8948283,9.0,379.0339,380.03806,3.520487,380.0382,380.79575
71,71,9,3,2,1,0.750000,1.0,70.0,--,--,380.81873,2.0,381.62866,0.8099312,7.0,383.33722,384.34265,3.5239189,384.3428,385.0958
72,72,9,3,2,1,8,1.0,71.0,--,--,385.11746,2.0,385.37878,0.2613331,9.0,387.6353,388.64105,3.5235994,388.64117,396.6461
