onset	duration	trial_type	rt	resp	gender
0.7351832682034	3.00696450017858	decision	2.06628214148805	left	B
4.28505818743724	1.01682607037947	loss	NaN	n/a	n/a
11.3523289612494	3.00728025869466	decision	2.06592412071768	right	B
14.9018214079551	1.0164451074088	win	NaN	n/a	n/a
21.9684600608889	3.00668375869282	decision	2.56609362212475	left	B
25.5181339329574	1.00004377146251	loss	NaN	n/a	n/a
32.5850961931283	3.00741579942405	decision	1.79944829782471	left	B
36.1350094500231	1.0167886383133	loss	NaN	n/a	n/a
38.9850373883964	3.0067094177939	decision	2.56644922785927	left	B
42.5349421928404	1.00004709209315	loss	NaN	n/a	n/a
45.3350280454615	3.0060540526174	decision	2.06612667709123	right	B
48.8848745885771	1.00006339314859	win	NaN	n/a	n/a
51.7349607882788	3.00702095020097	decision	1.80044840136543	left	B
55.2849624938099	1.01646503095981	win	NaN	n/a	n/a
60.2517118433025	3.00721505435649	decision	2.06643428525422	right	B
63.8013932622271	1.0000821093563	loss	NaN	n/a	n/a
68.7349073567893	3.00617932982277	decision	2.31717832549475	right	B
72.285085355863	1.01639590214472	win	NaN	n/a	n/a
75.1683542847168	3.00632936041802	decision	2.56605920870788	right	B
78.7182068653638	1.00004769582301	win	NaN	n/a	n/a
83.6348550423281	3.00668647547718	decision	2.06635428895243	left	B
87.1848836145364	1.01659574173391	loss	NaN	n/a	n/a
94.2681557432516	3.00672028516419	decision	2.06613180891145	left	B
97.8180173799628	1.01661717472598	loss	NaN	n/a	n/a
104.88471972791	3.00613736954983	decision	2.06629029207397	left	B
108.435066473787	1.01634035760071	win	NaN	n/a	n/a
115.501682184404	3.00681869569235	decision	2.06615444936324	left	B
119.051653400878	1.01640918443445	win	NaN	n/a	n/a
124.001510871691	3.0073726316914	decision	2.31621233350597	left	B
127.551527067204	1.01651333051268	win	NaN	n/a	n/a
130.434728980297	3.00764310953673	decision	1.79970217263326	right	B
133.984556807321	1.00003984721843	win	NaN	n/a	n/a
136.767971450114	3.00736206606962	decision	2.06659880571533	right	B
140.317730450188	1.01671860378701	loss	NaN	n/a	n/a
143.167884872993	3.0070182334166	decision	2.5665751087945	right	B
146.717766433372	1.00000513182022	loss	NaN	n/a	n/a
155.851079661981	3.00705053377897	decision	2.5667040082626	left	B
159.401132685947	1.00003622460645	loss	NaN	n/a	n/a
164.367968370905	3.0066360628698	decision	2.06609256565571	right	B
167.91815301124	1.01630986854434	win	NaN	n/a	n/a
170.78455300373	3.00646459928248	decision	2.56624787906185	left	B
174.334346115473	1.00008693931159	loss	NaN	n/a	n/a
181.384456646047	3.00668375869282	decision	1.54920596978627	right	B
184.934510273742	1.01668992592022	loss	NaN	n/a	n/a
187.784513458493	3.00726546696387	decision	1.79989386163652	left	B
191.334677571431	1.01613780122716	win	NaN	n/a	n/a
194.151039784658	3.00758847047109	decision	2.06634945899714	right	B
197.700964512769	1.00045703491196	win	NaN	n/a	n/a
204.751382349525	3.00654731236864	decision	1.79915940586943	right	B
208.300966263632	1.01661808020435	loss	NaN	n/a	n/a
215.334447242785	3.00635411392432	decision	2.06605241645593	left	B
218.884512341581	1.01637869537808	loss	NaN	n/a	n/a
223.817586306017	3.0066846642876	decision	2.06617950485088	right	B
227.367927316343	1.01612270751502	loss	NaN	n/a	n/a
230.217533236835	3.00794166140258	decision	2.3164779812796	right	B
233.767547017313	1.01666577614378	loss	NaN	n/a	n/a
240.834357133834	3.00709007901605	decision	2.31641911610495	right	B
244.384369706851	1.016649173107	loss	NaN	n/a	n/a
247.250690910616	3.00706894800533	decision	2.06643670017365	right	B
250.800704389228	1.01671558513772	win	NaN	n/a	n/a
253.651279320475	3.00812942604534	decision	2.56589740503114	right	B
257.200542344013	1.00017055799253	loss	NaN	n/a	n/a
260.017392081325	3.00691861542873	decision	2.06651156453881	left	B
263.56737929699	1.01677716709673	win	NaN	n/a	n/a
268.517210203107	3.0071172475582	decision	2.31614411028568	right	B
272.067337789573	1.01657581806649	win	NaN	n/a	n/a
274.900613012374	3.00688722077757	decision	2.06654144998174	left	B
278.450855914154	1.0166005716892	win	NaN	n/a	n/a
283.367723854259	3.00647939101327	decision	2.56615097785834	left	B
286.917812499101	1.01618610078003	win	NaN	n/a	n/a
294.017277369741	3.00695453828666	decision	2.31645081273746	right	B
297.567201795988	1.00008090178017	win	NaN	n/a	n/a
304.617456319742	3.00772491691168	decision	1.80025550490245	left	B
308.167227998492	1.01678350637667	win	NaN	n/a	n/a
311.050783404382	3.00717943324707	decision	1.79958444228396	right	B
314.600711151143	1.00005494081415	loss	NaN	n/a	n/a
317.417260827147	3.00755315145943	decision	1.79983288340736	left	B
320.967185555259	1.01682425918989	win	NaN	n/a	n/a
325.934001316666	3.00731889845338	decision	1.54966511786915	left	B
329.48382159695	1.01671045320109	loss	NaN	n/a	n/a
336.550693597295	3.00737897097133	decision	1.79947274946608	right	B
340.100579383783	1.01669535972178	win	NaN	n/a	n/a
347.16732822021	3.00723829842173	decision	2.31610335747246	left	B
350.717138538603	1.00001599919051	win	NaN	n/a	n/a
364.067149421084	3.00667741941288	decision	2.31622863456141	right	B
367.616943740286	1.00003018719144	loss	NaN	n/a	n/a
372.567068368313	3.0060914849164	decision	2.31607377401087	left	B
376.116861480055	1.00000875431579	win	NaN	n/a	n/a
381.05026448553	3.00738017854746	decision	2.06650099903345	left	B
384.60037818586	1.01656585629098	loss	NaN	n/a	n/a
389.550291503081	3.00681899755727	decision	2.06547553825658	right	B
393.100182421505	1.01654653646983	loss	NaN	n/a	n/a
400.183728650445	3.00670096534304	decision	2.56603053072467	left	B
403.73364251107	1.00001720676664	loss	NaN	n/a	n/a
406.550419798936	3.00679816829506	decision	1.79951561545022	right	B
410.100191779551	1.00015697372146	loss	NaN	n/a	n/a
417.133791998378	3.00738772528712	decision	2.31612901668996	right	B
420.68366088008	1.00004980887752	win	NaN	n/a	n/a
423.500580651686	3.00608393806033	decision	2.31610215001274	left	B
427.050335727399	1.0166183821857	loss	NaN	n/a	n/a
431.966815157677	3.00759058364201	decision	1.79989205044694	right	B
435.516769771115	1.01663770200685	loss	NaN	n/a	n/a
438.366793483263	3.00733972759917	decision	1.79975983023178	left	B
441.916661157506	1.0167659977451	win	NaN	n/a	n/a
444.733556779334	3.00744960911106	decision	1.7996520617744	right	B
448.283284988371	1.00021825381555	win	NaN	n/a	n/a
451.10017245973	3.00699166860431	decision	1.8004728530068	left	B
454.650231521111	1.01667634164914	win	NaN	n/a	n/a
459.600210042787	3.00647999485955	decision	2.56718157057185	right	B
463.150062623434	1.01670441578608	win	NaN	n/a	n/a
468.116671300377	3.0071093988372	decision	1.79978730063885	left	B
471.666612329544	1.01697368605528	loss	NaN	n/a	n/a
478.783423095127	3.00628589070402	decision	2.5671079136664	right	B
482.333229791024	1.00000965991057	loss	NaN	n/a	n/a
487.250171991764	3.00709339964669	decision	1.79949146567378	right	B
490.800177319907	1.016323452699	loss	NaN	n/a	n/a
493.649962552707	3.0071776220575	decision	1.79949931427836	left	B
497.199993539834	1.01640586403664	win	NaN	n/a	n/a
500.033429358969	3.00696268887259	decision	1.54947312676813	right	B
503.583236054867	1.01644722046331	win	NaN	n/a	n/a
