onset	duration	trial_type	rt	resp	gender
0.73949823359726	3.007119360685465	decision	1.813036785883014	right	B
4.289626121870242	1.01636420552677	loss	n/a	n/a	n/a
11.372860214629327	3.0067794522619806	decision	2.316493678634288	left	B
14.922811507494771	1.000050714588724	win	n/a	n/a	n/a
21.9729467916477	3.3392409778753063	decision	3.332792679721024	right	B
25.856134516798193	1.0165673657029402	loss	n/a	n/a	n/a
32.93935140281974	3.0884770140692126	decision	3.082065846232581	left	B
36.57271700631827	1.0165854780643713	loss	n/a	n/a	n/a
39.42275762326608	3.3399111347680446	decision	3.333646676968783	right	B
43.30593266975484	1.0166700023546582	loss	n/a	n/a	n/a
46.122802632453386	3.3389587270794436	decision	3.332733512695995	left	B
50.00612861519039	1.000109277840238	win	n/a	n/a	n/a
53.35610810294747	3.0065023333299905	decision	2.5662240310484776	left	B
56.9058345008234	1.0000721475225873	win	n/a	n/a	n/a
61.856051199982176	3.0067688867275137	decision	2.5662925561045995	left	B
65.4060710179183	1.016432730582892	loss	n/a	n/a	n/a
70.35593150755449	3.06918253233016	decision-missed	n/a	n/a	B
73.9725066615647	1.0001596905494807	win	n/a	n/a	n/a
76.83931237070647	3.006218875059858	decision	2.5660640386195155	left	B
80.38946018257411	1.0165450271451846	win	n/a	n/a	n/a
85.33929078682559	3.006631232870859	decision	2.3162702929985244	right	B
88.88902624086768	1.0000911654933589	loss	n/a	n/a	n/a
95.9558487341128	3.006707908483804	decision	2.3173455627984367	left	B
99.50619819680287	1.0162597576418193	loss	n/a	n/a	n/a
106.57255852325761	3.339884268134483	decision	3.3336077354324516	right	B
110.45583047083346	1.0165121230384102	win	n/a	n/a	n/a
117.52246459564776	3.0065729714842746	decision	2.5662412377714645	left	B
121.07235853275051	1.016496727548656	win	n/a	n/a	n/a
126.02247833083675	3.0066846643021563	decision	2.0669556190114236	right	B
129.57227838560357	1.0000235460465774	win	n/a	n/a	n/a
132.43916348720086	3.0065657265367918	decision	2.832815772955655	right	B
135.98901184154965	1.0169585924595594	win	n/a	n/a	n/a
138.8057679983176	3.0696658301749267	decision-missed	n/a	n/a	B
142.422439147791	1.01636420552677	loss	n/a	n/a	n/a
145.2725908538123	3.0068241293920437	decision	2.31642726669088	left	B
148.82221703001414	1.016616570923361	loss	n/a	n/a	n/a
158.00586387301155	3.0067975646234117	decision	2.5663731560634915	right	B
161.55565577722155	1.0166431357065449	loss	n/a	n/a	n/a
166.55568022889202	3.3391416618105723	decision	3.332718720950652	left	B
170.43887610458478	1.016735206823796	win	n/a	n/a	n/a
173.55567721016996	3.006715153416735	decision	2.3162524825165747	right	B
177.105437417762	1.016638607616187	loss	n/a	n/a	n/a
184.18890757478948	3.0064790891483426	decision	2.828463677346008	left	B
187.73903184061055	1.0165045762259979	loss	n/a	n/a	n/a
190.60548435893725	3.069514290182269	decision-missed	n/a	n/a	B
194.22213890541752	1.0001874628069345	win	n/a	n/a	n/a
197.03902577297413	3.339585716239526	decision	3.332756756877643	right	B
200.92205078883853	1.0001868590625236	win	n/a	n/a	n/a
207.9887975120946	3.0892836173443357	decision	3.0829285977961263	left	B
211.62212357029784	1.0165196698508225	loss	n/a	n/a	n/a
218.68873414905102	3.008003847062355	decision	2.3168320777040208	left	B
222.23880136095977	1.0165655544842593	loss	n/a	n/a	n/a
227.20536143645586	3.0067800560063915	decision	2.5663305920315906	right	B
230.75535951956408	1.0164834451570641	loss	n/a	n/a	n/a
233.672219007276	3.0073249358538305	decision	2.3159195171756437	left	B
237.22213105672563	1.0165788368758513	loss	n/a	n/a	n/a
244.3053708850639	3.0073641792696435	decision	2.5661518835113384	right	B
247.85505049269705	1.0000256591592915	loss	n/a	n/a	n/a
250.72205272082647	3.0064848247129703	decision	2.5660435112949926	left	B
254.2721455918945	1.016377487918362	win	n/a	n/a	n/a
257.1385585649259	3.089238034604932	decision	3.082953653211007	right	B
260.77210317880963	1.016494010691531	loss	n/a	n/a	n/a
263.6884869154892	3.0064350157626905	decision	2.8328408283705357	right	B
267.238376928246	1.0000914673728403	win	n/a	n/a	n/a
272.20525487547275	3.0064537318539806	decision	2.0661734673922183	left	B
275.75507062759425	1.0165782331314404	win	n/a	n/a	n/a
279.2053221930255	3.0063190967339324	decision	2.829188473187969	right	B
282.75530337127566	1.0163723560981452	win	n/a	n/a	n/a
287.6886342292564	3.007825440436136	decision	2.0658637462329352	left	B
291.2384988847334	1.0164372586732497	win	n/a	n/a	n/a
298.83849097567145	3.340256476905779	decision	3.333938285795739	left	B
302.72171130304923	1.016513330527232	win	n/a	n/a	n/a
309.8051814600767	3.007200564388768	decision	2.5662783680891152	right	B
313.3550397762301	1.0165465365134878	win	n/a	n/a	n/a
316.238439415858	3.0898478170129238	decision	3.0835181547590764	left	B
319.8716477437847	1.0000295835052384	loss	n/a	n/a	n/a
322.68876584566897	3.0071643396804575	decision	2.3157649584609317	right	B
326.23836274024507	1.0164819358033128	win	n/a	n/a	n/a
331.2217328869301	3.0075739806343336	decision	1.8122012028325116	left	B
334.77180975874944	1.0164671440579696	loss	n/a	n/a	n/a
341.83842486559297	3.006333586614346	decision	2.3160212482034694	right	B
345.38838159217266	1.0164182407170301	win	n/a	n/a	n/a
352.4550190375885	3.006355321427691	decision	2.8285113731981255	left	B
356.0056329405634	1.0159753937768983	win	n/a	n/a	n/a
369.38812801928725	3.006359547638567	decision	2.0660500015656	left	B
372.93806602977565	1.016499444405781	loss	n/a	n/a	n/a
377.9214884004032	3.0070855509547982	decision	1.5496291949239094	left	B
381.4713313210523	1.0001464081578888	win	n/a	n/a	n/a
386.42146349592076	3.0677773159113713	decision-missed	n/a	n/a	B
390.03802174508746	1.0166564180981368	loss	n/a	n/a	n/a
395.0050355349231	3.006673796888208	decision	2.0662549729750026	right	B
398.5544796820177	1.000121956487419	loss	n/a	n/a	n/a
405.63819556325325	3.0072968617168954	decision	2.3159620812075445	right	B
409.1878368330945	1.0167499985691393	loss	n/a	n/a	n/a
412.0216436534247	3.089008007766097	decision	3.082588689372642	right	B
415.65465002866404	1.0000036224664655	loss	n/a	n/a	n/a
422.68794535625784	3.006910163050634	decision	1.5496168181562098	left	B
426.23810101680283	1.0162878317933064	win	n/a	n/a	n/a
429.60468500059505	3.3393656511907466	decision	3.3330015754618216	left	B
433.48776284414635	1.0168746718991315	loss	n/a	n/a	n/a
438.40456195735896	3.0070152146799956	decision	1.2997219452663558	right	B
441.9544694787328	1.0000987123057712	loss	n/a	n/a	n/a
444.7879641629115	3.0681377516593784	decision-missed	n/a	n/a	B
448.4045770509838	1.0162244385719532	win	n/a	n/a	n/a
451.23783868960163	3.0065228606545134	decision	2.3170029375323793	left	B
454.7876553473616	1.0167083401611308	win	n/a	n/a	n/a
457.6379410847585	3.007879475597292	decision	1.2996042149752611	right	B
461.187749893812	1.0001756897981977	win	n/a	n/a	n/a
466.1545463354705	3.007209922419861	decision	2.066712913525407	left	B
469.7042138682009	1.000054638920119	win	n/a	n/a	n/a
474.7544457515469	3.0068226200382924	decision	1.79940875255852	right	B
478.304257579337	1.0000178104819497	loss	n/a	n/a	n/a
485.4213315776433	3.0064006023021648	decision	1.5491108798742061	left	B
488.9712173641892	1.0163657148950733	loss	n/a	n/a	n/a
493.90435351441556	3.0065521422802703	decision	2.5662765568558825	left	B
497.4541925107187	1.0165721956727793	loss	n/a	n/a	n/a
500.3211068939563	3.0075561701669358	decision	1.549427845980972	right	B
503.8711019583425	1.0162552295660134	win	n/a	n/a	n/a
506.72123766511504	3.0074127807311015	decision	1.2994197708903812	left	B
510.27094745999784	1.0163738654518966	win	n/a	n/a	n/a
