onset	duration	trial_type	rt	resp
<<<<<<< HEAD
0.0003010000000358559	0.6476177999938955	fixation_1	999	999
0.6479932999936864	3.0054797000047984	face	2.8182512000057613	2
3.653519100000267	0.6476177999938955	fixation_2	999	999
4.201326999995217	1.001116200000979	feedback loss	999	999
5.202445799994166	5.316840200001025	ITI	999	999
10.530672499997308	0.6431574000016553	fixation_1	999	999
11.17393009999796	3.007115200001863	face	2.318311099996208	3
14.181091299993568	0.6431574000016553	fixation_2	999	999
14.72741309999401	1.0005709000033676	feedback win	999	999
15.72798679999687	5.316857899997558	ITI	999	999
21.048265399993397	0.6505333000022802	fixation_1	999	999
21.698871799999324	3.0070677999974578	face	2.3180416999966837	2
24.705984699998226	0.6505333000022802	fixation_2	999	999
25.251492299998063	1.0007148000004236	feedback loss	999	999
26.252209599995695	5.316919400000188	ITI	999	999
31.572520099995018	0.6503126000025077	fixation_1	999	999
32.22297269999399	3.0743964000066626	face	n/a	n/a
35.2974058999971	0.6503126000025077	fixation_2	999	999
35.84244299999409	1.0004215000008116	feedback loss	999	999
36.84286710000015	1.1183313000001363	ITI	999	999
37.9647358000002	0.6294767999934265	fixation_1	999	999
38.59434920000058	3.0080769999985932	face	2.0667640999963623	2
41.60247179999715	0.6294767999934265	fixation_2	999	999
42.14636349999637	1.0009528000009595	feedback loss	999	999
43.1473188999953	1.1178699000010965	ITI	999	999
44.2686778999996	0.630147500000021	fixation_1	999	999
44.89894219999405	3.0067061000008835	face	2.834070299999439	2
47.90569669999968	0.630147500000021	fixation_2	999	999
48.450913499997114	1.0010343000030844	feedback win	999	999
49.45195059999969	1.1178488000005018	ITI	999	999
50.573479699996824	0.6297247999973479	fixation_1	999	999
51.203308899996046	3.006816599998274	face	2.067223300000478	3
54.210169300000416	0.6297247999973479	fixation_2	999	999
54.75581329999841	1.0005372000014177	feedback win	999	999
55.75635319999856	3.216934099997161	ITI	999	999
58.97689069999615	0.6323028000042541	fixation_1	999	999
59.6092725999988	3.007086999998137	face	2.067277499998454	2
62.616405199994915	0.6323028000042541	fixation_2	999	999
63.161540199995216	1.0007430000041495	feedback loss	999	999
64.1622858999981	3.216695900002378	ITI	999	999
67.38264059999347	0.6323955000043497	fixation_1	999	999
68.0151407999947	3.0077740000051563	face	2.567778900003759	2
71.02296009999554	0.6323955000043497	fixation_2	999	999
71.5676536999963	1.0005175999976927	feedback win	999	999
72.56820969999535	1.118125400003919	ITI	999	999
73.6899573999981	0.6295618000003742	fixation_1	999	999
74.3196245999934	3.0741657000035048	face	n/a	n/a
77.39382710000064	0.6295618000003742	fixation_2	999	999
77.93890289999399	1.0006375000011758	feedback win	999	999
78.93954300000041	3.2158087999996496	ITI	999	999
=======
0.0004440544144017622	0.6809796486631967	fixation_1	999	999
0.681539923985838	3.00700615849928	face	1.5494109411229147	3
3.688599513916415	0.6809796486631967	fixation_2	999	999
4.231342997474712	1.0001310126535827	feedback loss	999	999
5.23147702885035	5.31683811514813	ITI	999	999
10.56068104847509	0.6705158427212154	fixation_1	999	999
11.231313715834403	3.006859146611532	face	2.0663748163497075	3
14.238225690132822	0.6705158427212154	fixation_2	999	999
14.781501676741755	1.0163871478434885	feedback win	999	999
15.797901503232424	5.316705593111692	ITI	999	999
21.1190174533549	0.6789085015479941	fixation_1	999	999
21.798057571300888	3.0071332468214678	face	2.3163131588953547	3
24.80524243832042	0.6789085015479941	fixation_2	999	999
25.34805535254418	1.000132522021886	feedback loss	999	999
26.34819119515305	5.316108489350881	ITI	999	999
31.66864030896977	0.9127180990908528	fixation_1	999	999
32.58149093008251	3.0063686038192827	face	2.828341117114178	3
35.58791628592007	0.9127180990908528	fixation_2	999	999
36.1312535526522	1.016555290814722	feedback loss	999	999
37.14782091836969	1.117728155979421	ITI	999	999
38.27000169349776	0.677754141157493	fixation_1	999	999
38.94789952595602	3.0076723910751753	face	1.799658401097986	2
41.95562383910874	0.677754141157493	fixation_2	999	999
42.497771728245425	1.000229724959354	feedback loss	999	999
43.49801382997248	1.1174803186731879	ITI	999	999
44.61983145250997	0.6613419379136758	fixation_1	999	999
45.28130319558841	3.0072361853381153	face	2.3168459638254717	2
48.288614547171164	0.6613419379136758	fixation_2	999	999
48.83114279563597	1.0166787566704443	feedback win	999	999
49.84783362719463	1.1187173921207432	ITI	999	999
50.970973753079306	0.6601622202433646	fixation_1	999	999
51.631273023434915	3.0899347562954063	face	3.0828908637340646	3
54.72128717220039	0.6601622202433646	fixation_2	999	999
55.26446052217216	1.0167155850940617	feedback win	999	999
56.281179729732685	3.217298682007822	ITI	999	999
59.50296121813881	0.6779829605075065	fixation_1	999	999
60.181093303646776	3.088735115044983	face	3.0823933778883656	2
63.26989845310163	0.6779829605075065	fixation_2	999	999
63.81455852507497	1.0166054016444832	feedback loss	999	999
64.83117600160767	3.2167861025227467	ITI	999	999
68.05251735993079	0.6952262187114684	fixation_1	999	999
68.74788364747656	3.007593602349516	face	1.8119479318265803	2
71.75552675691142	0.6952262187114684	fixation_2	999	999
72.29774105800607	1.016513330527232	feedback win	999	999
73.31426646343607	1.11783803756407	ITI	999	999
74.43659274111269	0.6608661868667696	fixation_1	999	999
75.09759024251252	3.007164641545387	face	2.3164160974120023	3
78.10480952297803	0.6608661868667696	fixation_2	999	999
78.64768160421227	1.0002022545668297	feedback win	999	999
79.64789593368187	3.2164477034530137	ITI	999	999
82.86886297010642	0.678867145019467	fixation_1	999	999
83.54787471205054	3.007532925985288	face	2.316266066773096	2
86.55546288070036	0.678867145019467	fixation_2	999	999
87.09803671191912	1.0162313816254027	feedback loss	999	999
88.11427111228113	5.316581825405592	ITI	999	999
93.43545679494855	0.695483715942828	fixation_1	999	999
94.13109325837286	3.007258523895871	face	2.566212861755048	2
97.13840823242208	0.695483715942828	fixation_2	999	999
97.68124771142902	1.0163059441401856	feedback loss	999	999
98.69755697615619	5.316793136153137	ITI	999	999
104.0190043822804	0.6951272045262158	fixation_1	999	999
104.71428825863404	3.0686147101805545	face	n/a	n/a
107.78294734407973	0.6951272045262158	fixation_2	999	999
108.33094642759534	1.0001195414952235	feedback win	999	999
109.33107834585826	5.316613823888474	ITI	999	999
114.65230327195604	0.6952382936142385	fixation_1	999	999
115.34769280368346	3.0075812255818164	face	2.3163022914814064	2
118.3553286681854	0.6952382936142385	fixation_2	999	999
118.89745663374197	1.0169208583974978	feedback win	999	999
119.91438956704224	3.216415403105202	ITI	999	999
123.13556851795875	0.6787379435845651	fixation_1	999	999
123.81445860528038	3.0063610569923185	face	2.8326847603020724	2
126.82087611242605	0.6787379435845651	fixation_2	999	999
127.36393626022618	1.0001741804153426	feedback win	999	999
128.36412281742378	1.117821434570942	ITI	999	999
129.4867253084085	0.6608818842360051	fixation_1	999	999
130.14777050566045	3.0064322989055654	face	2.83255465325783	2
133.1542562359973	0.6608818842360051	fixation_2	999	999
133.6977178741945	1.0164478242077166	feedback win	999	999
134.71416901900375	1.1177269484905992	ITI	999	999
135.83662902617652	0.6441783740447136	fixation_1	999	999
136.48096920386888	3.00674775565858	face	2.828510467574233	2
139.4877734096808	0.6441783740447136	fixation_2	999	999
140.03086283909215	1.0166398151195608	feedback loss	999	999
141.04751472909993	1.1175781253550667	ITI	999	999
142.16993247413484	0.6607215899566654	fixation_1	999	999
142.83080681155843	3.0893273888650583	face	3.0830306307034334	3
145.92020997041254	0.6607215899566654	fixation_2	999	999
146.46382043174526	1.0000283760164166	feedback loss	999	999
147.46386088266445	7.417212829459459	ITI	999	999
154.88591302992427	0.6780967664381023	fixation_1	999	999
155.5641779393336	3.0897092575469287	face	3.0829295034200186	3
158.65395511819224	0.6780967664381023	fixation_2	999	999
159.19753931662126	1.0166144578251988	feedback loss	999	999
160.21416675495857	3.2169877533306135	ITI	999	999
163.43601586278237	0.6780267320282292	fixation_1	999	999
164.11422552952718	3.00685824098764	face	1.799622478269157	2
167.12113297573524	0.6780267320282292	fixation_2	999	999
167.66433319235512	1.0164079770329408	feedback win	999	999
168.68075324429083	1.117718797933776	ITI	999	999
169.80346622061916	0.6603019871836295	fixation_1	999	999
170.46393936951063	3.00696963192604	face	1.8121975803660462	2
173.47096001789032	0.6603019871836295	fixation_2	999	999
174.01385745640437	1.0000615819881205	feedback loss	999	999
175.01392235899402	5.316665142207057	ITI	999	999
180.33561820616887	0.6949243462295271	fixation_1	999	999
181.03072458150564	3.006919521096279	face	1.8125574123696424	2
184.03769421343168	0.6949243462295271	fixation_2	999	999
184.58055331413925	1.0000633932213532	feedback loss	999	999
185.58062002796214	1.117847999354126	ITI	999	999
186.7034323203261	1.1938899801607477	fixation_1	999	999
187.89749557529285	3.089337954399525	face	3.082870336409542	3
190.98691865774163	1.1938899801607477	fixation_2	999	999
191.5307123556704	1.0165788368612994	feedback win	999	999
192.5473035692994	1.1175908040022478	ITI	999	999
193.66990273969714	0.6606603098334745	fixation_1	999	999
194.3307302868925	3.0067220964847365	face	2.0663195736851776	3
197.33750702229736	0.6606603098334745	fixation_2	999	999
197.88061788467166	1.0167681109160185	feedback win	999	999
198.89739807049045	5.316677820854238	ITI	999	999
204.21952982152288	0.6777788947074441	fixation_1	999	999
204.8974865191267	3.3396593731158646	face	3.3327356258087093	2
208.23722800156975	0.6777788947074441	fixation_2	999	999
208.78070443151228	1.000112598441774	feedback loss	999	999
209.78082065242052	5.316428474179702	ITI	999	999
215.10230428323848	0.6947214879037347	fixation_1	999	999
215.7972047815274	3.0067495668918127	face	2.565680660569342	3
218.80400204427133	0.6947214879037347	fixation_2	999	999
219.34711411413446	1.000183840340469	feedback loss	999	999
220.3473106331221	3.216247561998898	ITI	999	999
223.5686873105151	0.6950520382815739	fixation_1	999	999
224.26392620787374	3.006752283734386	face	2.0661064517043997	3
227.27073313052824	0.6950520382815739	fixation_2	999	999
227.8140550017706	1.0163572624587687	feedback loss	999	999
228.83042494287656	1.1176662721118191	ITI	999	999
229.95327044121223	0.6603931526915403	fixation_1	999	999
230.61384683049982	3.00674775565858	face	2.3161779200163437	2
233.62064982882293	0.6603931526915403	fixation_2	999	999
234.1638895907381	1.0166416263382416	feedback loss	999	999
235.1805435938586	5.316544695087941	ITI	999	999
240.5023789061088	0.6948760466329986	fixation_1	999	999
241.19743547248072	3.0692706791014643	face	n/a	n/a
244.26679097775195	0.6948760466329986	fixation_2	999	999
244.813674340563	1.0000627894769423	feedback loss	999	999
245.8137404506415	1.1176116331917	ITI	999	999
246.93657357220945	0.6770737205806654	fixation_1	999	999
247.61384954735695	3.0058635711320676	face	2.0661417707888177	2
250.61976292745385	0.6770737205806654	fixation_2	999	999
251.1640824872593	1.0163503193907673	feedback win	999	999
252.18043642911653	1.1177230241446523	ITI	999	999
253.30335648996697	0.6604837144259363	fixation_1	999	999
253.96405664697522	3.3393303321063286	face	3.3325819727178896	2
257.3034705977625	0.6604837144259363	fixation_2	999	999
257.84705811679305	1.0000630913418718	feedback loss	999	999
258.847124226857	1.1175527680752566	ITI	999	999
259.9700346277823	0.6604462822433561	fixation_1	999	999
260.63066807096766	3.0070451000501635	face	2.5660561899421737	3
263.63776901742676	0.6604462822433561	fixation_2	999	999
264.18073377352266	1.0161987793981098	feedback win	999	999
265.196944929703	3.216772216372192	ITI	999	999
268.4190479122917	0.6614255565800704	fixation_1	999	999
269.0806633466709	3.006851599784568	face	2.8284422443975927	2
272.0875707928644	0.6614255565800704	fixation_2	999	999
272.63061494141584	1.016571893793298	feedback win	999	999
273.6471898539312	1.1175005441327812	ITI	999	999
274.7700631245534	0.6603587392164627	fixation_1	999	999
275.4306180808926	3.0710345200204756	face	n/a	n/a
278.50169757990807	0.6603587392164627	fixation_2	999	999
279.0469758867257	1.0165371784532908	feedback win	999	999
280.0635257438262	3.2166073940024944	ITI	999	999
283.2854940912948	0.6782003086991608	fixation_1	999	999
283.96388578714686	3.0076346570131136	face	1.811731187379337	2
286.9715744793357	0.6782003086991608	fixation_2	999	999
287.51362275055726	1.0165543851908296	feedback win	999	999
288.53018015447014	5.317459670593962	ITI	999	999
293.8530677942181	0.6939426569006173	fixation_1	999	999
294.54721451691876	3.007188791350927	face	1.7995237659633858	3
297.55445432472334	0.6939426569006173	fixation_2	999	999
298.0969680833223	1.0166177784121828	feedback win	999	999
299.11359823850216	5.316641898039961	ITI	999	999
304.4356185985962	0.6944410483847605	fixation_1	999	999
305.1302836363611	3.0068685046426253	face	2.5661180737952236	3
308.13720225184807	0.6944410483847605	fixation_2	999	999
308.6802931906277	0.9999978868872859	feedback win	999	999
309.68029469998146	1.117534957593307	ITI	999	999
310.80358485650504	0.6933757403749041	fixation_1	999	999
311.4971640589356	3.339130190652213	face	3.3326879299565917	2
314.8363757551706	0.6933757403749041	fixation_2	999	999
315.3803303511231	1.0166521918872604	feedback loss	999	999
316.39699461791315	1.118528721810435	ITI	999	999
317.52104881367995	0.6757195206155302	fixation_1	999	999
318.196976022562	3.0068298649712233	face	2.8334946841787314	3
321.20386203582166	0.6757195206155302	fixation_2	999	999
321.7467310983193	1.000154558714712	feedback win	999	999
322.7468989394256	3.216430496730027	ITI	999	999
325.9688488726679	0.6779772249283269	fixation_1	999	999
326.6470446532767	3.0077185775589896	face	2.065982683983748	2
329.6548193791241	0.6779772249283269	fixation_2	999	999
330.19699383304396	1.0165670638380107	feedback loss	999	999
331.213563915604	5.3175991356838495	ITI	999	999
336.5367464847659	0.7099126169632655	fixation_1	999	999
337.2468710162211	3.0077849895169493	face	2.0660862262448063	3
340.25470611656783	0.7099126169632655	fixation_2	999	999
340.79667076910846	1.016628645826131	feedback win	999	999
341.8133117917023	5.316849284427008	ITI	999	999
347.13586495672644	0.7109003437508363	fixation_1	999	999
347.8469889879925	3.006703682258376	face	2.828706080937991	3
350.8537427810952	0.7109003437508363	fixation_2	999	999
351.3966447476996	1.0004250364581821	feedback win	999	999
352.3970821609255	11.61601185996551	ITI	999	999
364.01883382431697	0.6944712356344098	fixation_1	999	999
364.7135378036328	3.0076612217962975	face	2.065981476509478	2
367.72125064562715	0.6944712356344098	fixation_2	999	999
368.2633079730149	1.0164937088266015	feedback loss	999	999
369.279805002443	3.2168790792347863	ITI	999	999
372.50251444685273	0.6940404635970481	fixation_1	999	999
373.19677225864143	3.00649056029215	face	2.0660922637034673	3
376.20331564662047	0.6940404635970481	fixation_2	999	999
376.746979237505	1.016251003355137	feedback win	999	999
377.7632332595822	3.216050137387356	ITI	999	999
380.98510289474507	0.6613636727124685	fixation_1	999	999
381.64669478306314	3.006827751858509	face	2.066397154907463	3
384.65357747572125	0.6613636727124685	fixation_2	999	999
385.1966829043813	1.0165103118197294	feedback loss	999	999
386.213196536788	3.2165968284680275	ITI	999	999
389.43572908392525	0.6775425285595702	fixation_1	999	999
390.11349379063176	3.0067368882446317	face	1.549260608619079	2
393.12027928033785	0.6775425285595702	fixation_2	999	999
393.66331739144516	1.0166310608037747	feedback loss	999	999
394.6799520747154	5.317274924629601	ITI	999	999
400.00313313450897	0.6933905321347993	fixation_1	999	999
400.6967458447907	3.0071975456521614	face	2.0660829056578223	3
403.7040079911676	0.6933905321347993	fixation_2	999	999
404.24792304182483	1.0155038689554203	feedback loss	999	999
405.2634302313818	1.1167355992365628	ITI	999	999
406.38692867990176	0.6929144792229636	fixation_1	999	999
407.08007892154274	3.006399998543202	face	2.566073094785679	3
410.08653355900606	0.6929144792229636	fixation_2	999	999
410.62983701602207	1.016752413546783	feedback loss	999	999
411.6466015044716	5.316470736317569	ITI	999	999
416.9690287886624	0.6939909565116977	fixation_1	999	999
417.6632524888555	3.006822318158811	face	2.316060793498764	3
420.67012371035526	0.6939909565116977	fixation_2	999	999
421.21304046871956	1.0001793122501113	feedback win	999	999
422.2132231015712	1.1175373725709505	ITI	999	999
423.33670223025547	0.6763576790544903	fixation_1	999	999
424.0132878230361	3.006296154417214	face	2.8286997416289523	3
427.0196355976368	0.6763576790544903	fixation_2	999	999
427.56290343370347	1.0000887505157152	feedback loss	999	999
428.56299520294124	3.2165787161211483	ITI	999	999
431.78559989760106	0.6774196664482588	fixation_1	999	999
432.4632441571739	3.0067746223066933	face	2.5660226820909884	2
435.47007462588954	0.6774196664482588	fixation_2	999	999
436.0132017893775	1.0164384661620716	feedback loss	999	999
437.02964357612655	1.1176825732400175	ITI	999	999
438.15345868888835	0.6596807336318307	fixation_1	999	999
438.813355563223	3.007174603335443	face	2.0658706892863847	2
441.8205808811472	0.6596807336318307	fixation_2	999	999
442.36299985177175	1.01646804966731	feedback win	999	999
443.3794799763418	1.1179720689397072	ITI	999	999
444.50364918552805	0.6592653570842231	fixation_1	999	999
445.1631527199934	3.0078722306643613	face	1.799708511942299	3
448.17107294838934	0.6592653570842231	fixation_2	999	999
448.7130460533517	1.0000549407996004	feedback win	999	999
449.7131130690541	1.1178178121044766	ITI	999	999
450.8369164087926	0.6593746349099092	fixation_1	999	999
451.4965183536842	3.3394374968484044	face	3.332777284216718	3
454.836040072958	0.6593746349099092	fixation_2	999	999
455.37956299127836	1.0000624875974609	feedback win	999	999
456.37962879947736	3.2168093466898426	ITI	999	999
459.6027442623745	0.67675645260897	fixation_1	999	999
460.27973406240926	3.0062291387293953	face	2.5672256439429475	2
463.2860175381793	0.67675645260897	fixation_2	999	999
463.82962558453437	1.0166476637969026	feedback win	999	999
464.84628502135456	3.2165560756839113	ITI	999	999
468.06900835190027	0.6772895594040165	fixation_1	999	999
468.74652190068446	3.090075127009186	face	3.083414008768159	2
471.83668094825407	0.6772895594040165	fixation_2	999	999
472.37958865043765	1.0167527154117124	feedback loss	999	999
473.3963446864509	5.316311347662122	ITI	999	999
478.7189666783961	0.7105996787577169	fixation_1	999	999
479.42980151581287	3.0894934187235776	face	3.082733890056261	3
482.5193933449773	0.7105996787577169	fixation_2	999	999
483.0628344558354	1.0166784547909629	feedback loss	999	999
484.07952528739406	3.217393168088165	ITI	999	999
487.30313974551973	1.326483242912218	fixation_1	999	999
488.6298484871804	3.006462788020144	face	2.8327762276603607	3
491.63636621600017	1.326483242912218	fixation_2	999	999
492.1795769981545	1.0001047497498803	feedback loss	999	999
493.17968506850593	1.1173936812701868	ITI	999	999
494.30339422402903	0.6928963668760844	fixation_1	999	999
494.99652937203064	3.0693905224761693	face	n/a	n/a
498.0659660809906	0.6928963668760844	fixation_2	999	999
498.61273563788563	1.0000962973135756	feedback win	999	999
499.61284431198146	1.1174356415285729	ITI	999	999
500.73669112134667	0.6595714557915926	fixation_1	999	999
501.39650226388767	3.0073195021395804	face	2.066193994731293	3
504.4038712731126	0.6595714557915926	fixation_2	999	999
504.94646412230213	1.0163313014199957	feedback win	999	999
505.9628078005044	5.316625596911763	ITI	999	999
>>>>>>> 6b36ae40f877fcb918e47393672ccd6b54ad860e
