onset	duration	trial_type	rt	resp	gender
0.7409016387537122	3.0074897583108395	decision	2.0659977776231244	right	B
4.290851120487787	1.0000495070125908	loss	n/a	n/a	n/a
11.357432115706615	3.006704889703542	decision	1.79944859968964	left	B
14.907391257234849	1.0167662997264415	win	n/a	n/a	n/a
21.97427865304053	3.089103701408021	decision	3.0826717043528333	right	B
25.607322158641182	1.0000353191280738	loss	n/a	n/a	n/a
32.674192347796634	3.0063969797920436	decision	2.3161483365111053	left	B
36.224174733506516	1.016557101975195	loss	n/a	n/a	n/a
39.07398773857858	3.0065820276504382	decision	2.316172184422612	right	B
42.62402898946311	1.0167186037870124	loss	n/a	n/a	n/a
45.45748201524839	3.006827751873061	decision	2.315472443937324	left	B
49.00742636504583	1.0165332540636882	win	n/a	n/a	n/a
51.87413336185273	3.0892135829199106	decision	3.0827378144022077	right	B
55.50722939323168	1.016743357409723	win	n/a	n/a	n/a
60.45743613061495	3.00623336492572	decision	2.067050406942144	left	B
64.00720207381528	1.000000603729859	loss	n/a	n/a	n/a
68.9238903997466	3.0065551610896364	decision	2.06633255421184	right	B
72.47387399303261	1.0165921192383394	win	n/a	n/a	n/a
75.34066491038539	3.0063076255610213	decision	2.5660507562570274	right	B
78.89120968454517	1.0160300327697769	win	n/a	n/a	n/a
84.34074339724611	3.089980640914291	decision	3.08371376816649	right	B
87.97383912676014	1.0165561963804066	loss	n/a	n/a	n/a
95.05717857298441	3.0071601134259254	decision	2.066142676398158	right	B
98.60698526899796	1.0002665533684194	loss	n/a	n/a	n/a
105.65712477930356	3.006605271832086	decision	2.316378665273078	left	B
109.20708754332736	1.0165930249495432	win	n/a	n/a	n/a
116.29045778058935	3.0061373695498332	decision	2.566123809432611	left	B
119.84018146165181	1.0001856515882537	win	n/a	n/a	n/a
124.79054034268484	3.006366188870743	decision	2.8161922589642927	left	B
128.33999354601838	1.00034775712993	win	n/a	n/a	n/a
131.20698369923048	3.007035741931759	decision	2.5657473743194714	right	B
134.75704094930552	1.0000166030367836	win	n/a	n/a	n/a
137.55714944226202	3.006818997557275	decision	2.315500820055604	right	B
141.10669441486243	1.0169087834656239	loss	n/a	n/a	n/a
144.47369136021007	3.0062816644785926	decision	2.5660513599868864	right	B
148.02388233982492	1.0162775680655614	loss	n/a	n/a	n/a
157.19034992158413	3.339189055725001	decision	3.332773359841667	left	B
161.07340270967688	1.0000987122766674	loss	n/a	n/a	n/a
166.05687820992898	3.0068929562112316	decision	1.7994546371046454	left	B
169.606858180603	1.0167611679062247	win	n/a	n/a	n/a
172.49036800372414	3.0063426428241655	decision	2.566063434816897	left	B
176.04017741652206	1.0166440412867814	loss	n/a	n/a	n/a
183.1234513564268	3.007547114044428	decision	2.566372250439599	right	B
186.67337880143896	1.00001237669494	loss	n/a	n/a	n/a
189.52356643020175	3.0072038850048557	decision	2.0659268376184627	left	B
193.0734008984873	1.0000428658677265	win	n/a	n/a	n/a
195.8902624087641	3.066828530631028	decision-missed	n/a	n/a	B
199.50698457460385	1.0164762003114447	win	n/a	n/a	n/a
206.5903228133684	3.0073774616466835	decision	2.566591107985005	right	B
210.14004226820543	1.000043771462515	loss	n/a	n/a	n/a
217.17346317472402	3.006274721468799	decision	2.815892801503651	left	B
220.7235771769192	1.016537178424187	loss	n/a	n/a	n/a
225.6733247662196	3.006274721468799	decision	2.3161631282418966	left	B
229.22358004469424	1.0162606632802635	loss	n/a	n/a	n/a
232.09004765667487	3.0063942628912628	decision	2.062020003795624	right	B
235.64021026028786	1.0162630781996995	loss	n/a	n/a	n/a
242.70662311255	3.0890695897396654	decision	3.082859167130664	right	B
246.33980819629505	1.0002261025365442	loss	n/a	n/a	n/a
249.2065867369529	3.0062104226090014	decision	2.3161788255674765	left	B
252.75638950848952	1.0003205885877833	win	n/a	n/a	n/a
255.60654393141158	3.339448364218697	decision	3.333153115469031	right	B
259.490368607454	1.0160547862760723	loss	n/a	n/a	n/a
262.3233389391098	3.0073623680509627	decision	2.0661523363087326	right	B
265.87297809589654	1.0000953916460276	win	n/a	n/a	n/a
270.83985121315345	3.0065186343854293	decision	2.31629263155628	left	B
274.38973066036124	1.0166274383664131	win	n/a	n/a	n/a
277.25662270502653	3.006412375252694	decision	1.799061599187553	right	B
280.8063611778198	1.0001889721024781	win	n/a	n/a	n/a
285.7231781014707	3.0669160736724734	decision-missed	n/a	n/a	B
289.3397197476588	1.0165800442919135	win	n/a	n/a	n/a
296.45649851462804	3.0065542553784326	decision	2.3161006406880915	right	B
300.00659289513715	1.0164263912010938	win	n/a	n/a	n/a
307.08978532941546	3.006322417408228	decision	2.816088716732338	right	B
310.6395651587518	1.0166781529551372	win	n/a	n/a	n/a
313.53985788451973	3.0063429445726797	decision	2.8159492516424507	right	B
317.08996222668793	1.0162893411470577	loss	n/a	n/a	n/a
319.9397821748862	3.0064039229182526	decision	2.566060416167602	right	B
323.489931797958	1.0162214199081063	win	n/a	n/a	n/a
328.4728847568622	3.0065500291530043	decision	2.3162328607868403	right	B
332.0229969477514	1.0165622339118272	loss	n/a	n/a	n/a
339.10635692137294	3.006261439062655	decision	2.3160254744580016	left	B
342.6562599146273	1.016558007686399	win	n/a	n/a	n/a
349.7396657728823	3.0063661887543276	decision	2.316052039153874	right	B
353.2897127593169	1.016324962140061	win	n/a	n/a	n/a
366.67280373431277	3.006806922610849	decision	1.5495196152478456	left	B
370.22268921893556	1.000114711583592	loss	n/a	n/a	n/a
375.1895994665101	3.0071275113150477	decision	2.0658888017060235	right	B
378.7395540800644	1.0165154435671866	win	n/a	n/a	n/a
383.7061736243777	3.0064540337771177	decision	2.066223578294739	right	B
387.25592900207266	1.0167735446011648	loss	n/a	n/a	n/a
392.20614902174566	3.0895142479566857	decision	3.0828896563034505	left	B
395.83943070471287	1.0166654742788523	loss	n/a	n/a	n/a
402.9393683077069	3.006472749868408	decision	2.316103961202316	right	B
406.4894575562794	1.0163952984148636	loss	n/a	n/a	n/a
409.8394044418819	3.0063619625288993	decision	2.816495338920504	right	B
413.3893373204628	1.0166343813762069	loss	n/a	n/a	n/a
420.43942883308046	3.0068220163229853	decision	2.0666262762388214	right	B
423.9894057852216	1.0165112173417583	win	n/a	n/a	n/a
426.839465721976	3.0063758487813175	decision	2.8285687289899215	left	B
430.3892380044563	1.0165202736388892	loss	n/a	n/a	n/a
435.3226428212365	3.006247552926652	decision	2.5660199652193114	right	B
438.8720658372622	1.000353190698661	loss	n/a	n/a	n/a
441.7225782808382	3.0063293604180217	decision	2.317080820677802	left	B
445.27256428904366	1.016734603093937	win	n/a	n/a	n/a
448.1059327905532	3.006483315373771	decision	2.3162582180229947	right	B
451.6555520236725	1.0001337295398116	win	n/a	n/a	n/a
454.48939899308607	3.0659075176808983	decision-missed	n/a	n/a	B
458.1057435164694	1.0001138059888035	win	n/a	n/a	n/a
463.0558092794381	3.006561500253156	decision	2.06193789455574	right	B
466.60568057605997	1.016702604596503	win	n/a	n/a	n/a
471.5726699142251	3.0063396240584552	decision	2.56608366034925	left	B
475.12261335842777	1.0162663988303393	loss	n/a	n/a	n/a
482.2390645937994	3.339042949490249	decision	3.332794792833738	left	B
486.1221880201483	1.0000341115519404	loss	n/a	n/a	n/a
491.0559152365895	3.0064217334147543	decision	2.828308514901437	left	B
494.60566155810375	1.0167545266449451	loss	n/a	n/a	n/a
497.47245670168195	3.006342944689095	decision	2.828412358998321	right	B
501.02226973697543	1.0167774689616635	win	n/a	n/a	n/a
503.872420235537	3.0073279545176774	decision	2.3159584586974233	right	B
507.4222873059334	1.0169347445480525	win	n/a	n/a	n/a
