onset	duration	trial_type	rt	resp
0.0004045087844133377	0.6161787253804505	fixation_1	999	999
0.616667456459254	3.0070770944003016	face	2.567881873808801	3
3.6237940578721464	0.6161787253804505	fixation_2	999	999
4.169312627753243	1.0002804391551763	feedback win	999	999
5.169596387539059	5.317891156300902	ITI	999	999
10.497959192143753	0.593770140549168	fixation_1	999	999
11.091819894500077	3.0056619169190526	face	2.5676639219745994	3
14.097531620413065	0.593770140549168	fixation_2	999	999
14.64454023190774	1.0011854523327202	feedback loss	999	999
15.6457290048711	1.1174002515617758	ITI	999	999
16.76821188046597	0.5954959446098655	fixation_1	999	999
17.363834309391677	3.0055737702641636	face	2.5696185452397913	2
20.369472680380568	0.5954959446098655	fixation_2	999	999
20.916418502340093	1.001031195744872	feedback win	999	999
21.917461773147807	1.1175973741337657	ITI	999	999
23.040275500621647	0.5950926430523396	fixation_1	999	999
23.63547923276201	3.0059435637667775	face	2.3179575682152063	2
26.641472001792863	0.5950926430523396	fixation_2	999	999
27.188217078801244	1.000842223642394	feedback win	999	999
28.189062321092933	3.216899777529761	ITI	999	999
31.411198677495122	0.5979112247005105	fixation_1	999	999
32.00919986027293	3.006188382161781	face	1.8012038064189255	3
35.01543895690702	0.5979112247005105	fixation_2	999	999
35.561803373042494	1.0010061403736472	feedback loss	999	999
36.562812532065436	5.316551145166159	ITI	999	999
41.88475511665456	0.5995229210238904	fixation_1	999	999
42.484371919883415	3.0063891273457557	face	2.567974548554048	3
45.49081598804332	0.5995229210238904	fixation_2	999	999
46.03732832148671	1.0005925751756877	feedback loss	999	999
47.037932669743896	3.2164016882888973	ITI	999	999
50.259751758305356	0.5816288364585489	fixation_1	999	999
50.84148836322129	3.005826739128679	face	2.56786708207801	3
53.84736943943426	0.5816288364585489	fixation_2	999	999
54.393912865780294	1.0009548219386488	feedback win	999	999
55.394879762781784	3.217404507799074	ITI	999	999
58.61775902681984	0.5968048628419638	fixation_1	999	999
59.21466471487656	3.00632060226053	face	2.063646152615547	2
62.221040861681104	0.5968048628419638	fixation_2	999	999
62.767604211578146	1.0007374740671366	feedback loss	999	999
63.76834470429458	1.1176100529264659	ITI	999	999
64.89157833624631	0.6114088410977274	fixation_1	999	999
65.50308528589085	3.006168458610773	face	1.8009897787123919	2
68.5093020440545	0.6114088410977274	fixation_2	999	999
69.05616636062041	1.0007969427388161	feedback win	999	999
70.05696602026	1.1180308628827333	ITI	999	999
71.18046831851825	0.611009765882045	fixation_1	999	999
71.7915752872359	3.006012088852003	face	1.3004024864640087	2
74.79763899627142	0.611009765882045	fixation_2	999	999
75.34481242997572	1.001032101456076	feedback win	999	999
76.34584785206243	1.1182041375432163	ITI	999	999
77.46960462862626	0.594132689293474	fixation_1	999	999
78.06384025630541	3.005371213890612	face	1.3002011375501752	2
81.06926399609074	0.594132689293474	fixation_2	999	999
81.61650897352956	1.0005183147732168	feedback loss	999	999
82.61703966511413	3.2161309085786343	ITI	999	999
85.83864865056239	0.5981331008952111	fixation_1	999	999
86.43688348238356	3.00541317416355	face	1.5514488511253148	2
89.4423461635597	0.5981331008952111	fixation_2	999	999
89.98995610466227	1.000771887600422	feedback loss	999	999
90.99073976511136	1.1182427771855146	ITI	999	999
92.11478603747673	0.5945024825632572	fixation_1	999	999
92.7093984016683	3.0057506673038006	face	1.2997371598612517	2
95.71519797225483	0.5945024825632572	fixation_2	999	999
96.26167649612762	1.0008896177168936	feedback win	999	999
97.26256913249381	5.317520457087085	ITI	999	999
102.58588131167926	0.5981687218882143	fixation_1	999	999
103.18416232988238	3.0059462806675583	face	1.300931668607518	2
106.19015721208416	0.5981687218882143	fixation_2	999	999
106.73748278943822	1.0003800571430475	feedback win	999	999
107.73786556348205	1.1172384480014443	ITI	999	999
108.86086584813893	0.5950482678599656	fixation_1	999	999
109.45605237362906	3.005764553323388	face	1.300316150765866	2
112.46186583046801	0.5950482678599656	fixation_2	999	999
113.00862539722584	1.0008250169921666	feedback win	999	999
114.0094621872995	5.316573181888089	ITI	999	999
119.3315484628547	0.5996720460243523	fixation_1	999	999
119.93133431486785	3.005677010398358	face	1.5497019160538912	2
122.9370608322788	0.5996720460243523	fixation_2	999	999
123.48443078505807	1.000728417886421	feedback win	999	999
124.48517097579315	3.2168231019750237	ITI	999	999
127.70775983878411	0.5968549735844135	fixation_1	999	999
128.3047225808259	3.0052525780629367	face	1.550257361261174	2
131.3100261753425	0.5968549735844135	fixation_2	999	999
131.85774629982188	1.0006961175240576	feedback win	999	999
132.85844573797658	3.216524248244241	ITI	999	999
136.08090992760845	0.5972603880800307	fixation_1	999	999
136.6783152143471	3.00552607444115	face	1.5506313811056316	2
139.6838923052419	0.5972603880800307	fixation_2	999	999
140.2311907140538	1.0009071263484657	feedback win	999	999
141.23210961348377	3.21685027028434	ITI	999	999
144.4547567376867	0.5971948818769306	fixation_1	999	999
145.05206995340995	3.005804400658235	face	1.300699830520898	2
148.05792265362106	0.5971948818769306	fixation_2	999	999
148.6052427974064	1.0001799159217626	feedback win	999	999
149.60542573197745	11.617418816778809	ITI	999	999
161.22879414982162	0.6033304363954812	fixation_1	999	999
161.832268277416	3.005029796389863	face	1.5500294477678835	2
164.83734667510726	0.6033304363954812	fixation_2	999	999
165.3851087600924	1.0009339929092675	feedback loss	999	999
166.38605482783169	5.316744645358995	ITI	999	999
171.70851784013212	0.8326151287183166	fixation_1	999	999
172.5412476803176	3.006510781822726	face	1.5495600362773985	2
175.54780827113427	0.8326151287183166	fixation_2	999	999
176.09368365397677	1.0012841648422182	feedback win	999	999
177.09497083746828	5.315789219457656	ITI	999	999
182.41664294456132	0.5994338686577976	fixation_1	999	999
183.01619212841615	3.005544488551095	face	1.3005467811599374	2
186.02178823715076	0.5994338686577976	fixation_2	999	999
186.5689254461322	1.001003423705697	feedback loss	999	999
187.56994034093805	3.2168315544258803	ITI	999	999
190.79274715553038	0.5975115459877998	fixation_1	999	999
191.39039726089686	3.0054297770839185	face	1.2993347640149295	2
194.39588137506507	0.5975115459877998	fixation_2	999	999
194.94270584429614	1.0009979899041355	feedback loss	999	999
195.94370715483092	1.1169731023255736	ITI	999	999
197.0667074394878	0.7452424170915037	fixation_1	999	999
197.81207513343543	3.0055921846069396	face	1.29953792411834	2
200.8177192399744	0.7452424170915037	fixation_2	999	999
201.36471245600842	1.0008419218938798	feedback loss	999	999
202.3655573965516	1.1180969728156924	ITI	999	999
203.4896724957507	0.6105098652187735	fixation_1	999	999
204.10034778690897	3.0061319321393967	face	1.30097725125961	2
207.10654703667387	0.6105098652187735	fixation_2	999	999
207.65286013437435	1.001092777820304	feedback win	999	999
208.65396498702466	5.317595321452245	ITI	999	999
213.977743860567	0.5976558409165591	fixation_1	999	999
214.57554701529443	3.005357327638194	face	1.3002358528319746	2
217.58095234073699	0.5976558409165591	fixation_2	999	999
218.1284300617408	1.000774000538513	feedback loss	999	999
219.1292158353608	5.31635341886431	ITI	999	999
224.45182827441022	0.5987431849353015	fixation_1	999	999
225.0508220132906	3.0056881797499955	face	1.5507131884805858	2
228.05656000203453	0.5987431849353015	fixation_2	999	999
228.60372166289017	1.0006752882618457	feedback win	999	999
229.6043999698013	3.2162057731766254	ITI	999	999
232.8268197842408	0.5973240830935538	fixation_1	999	999
233.4242609939538	3.0052791428752244	face	1.551248106174171	2
236.4295914550312	0.5973240830935538	fixation_2	999	999
236.9772711286787	1.0009077300783247	feedback loss	999	999
237.9781818774063	1.1183499419130385	ITI	999	999
239.10257288767025	0.6104932625312358	fixation_1	999	999
239.7132001814898	3.0052610305137932	face	1.5492877473589033	2
242.71851041703485	0.6104932625312358	fixation_2	999	999
243.2658329757396	1.0007199654355645	feedback win	999	999
244.2665559600573	3.2168113288935274	ITI	999	999
247.48961936612613	0.5968247863929719	fixation_1	999	999
248.0866195403505	3.005803494947031	face	1.551309989998117	2
251.09247133485042	0.5968247863929719	fixation_2	999	999
251.63919226219878	1.0009388227481395	feedback loss	999	999
252.6401428580284	1.117314821574837	ITI	999	999
253.76365843857639	0.6278303924482316	fixation_1	999	999
254.3916313147638	3.005804098909721	face	1.5507892603054643	2
257.39748552441597	0.6278303924482316	fixation_2	999	999
257.9444621375296	1.0009551239199936	feedback loss	999	999
258.9454202800989	1.118229494895786	ITI	999	999
260.06995467981324	0.5933617074042559	fixation_1	999	999
260.6634899636265	3.0058807744644582	face	1.3000251459889114	2
263.6694220562931	0.5933617074042559	fixation_2	999	999
264.2165834151674	1.00025055417791	feedback loss	999	999
265.2168369879946	1.1185413289349526	ITI	999	999
266.34147462807596	0.5936581457499415	fixation_1	999	999
266.93528461572714	3.005047606769949	face	1.8000666534062475	2
269.9403868613299	0.5936581457499415	fixation_2	999	999
270.48809943906963	1.000687665073201	feedback win	999	999
271.48879012302496	5.31638420978561	ITI	999	999
276.8114931236487	0.615719577530399	fixation_1	999	999
277.42736152443103	3.0067800518590957	face	1.5499814497306943	2
280.43420828995295	0.615719577530399	fixation_2	999	999
280.9801621597726	1.000627592438832	feedback loss	999	999
281.9807927708607	1.118511141743511	ITI	999	999
283.1056477590464	0.6099311760626733	fixation_1	999	999
283.7157217208296	3.0055571671109647	face	1.3006086649838835	2
286.7213286969345	0.6099311760626733	fixation_2	999	999
287.2686011448968	1.0006607982795686	feedback loss	999	999
288.26926466007717	3.2170024141669273	ITI	999	999
291.4926558996085	1.180146220838651	fixation_1	999	999
292.67293886863627	3.006321205990389	face	1.5512979151681066	3
295.67931260052137	1.180146220838651	fixation_2	999	999
296.22593270242214	1.0007042679935694	feedback win	999	999
297.2266487434972	5.317166059045121	ITI	999	999
302.55026037991047	0.5977548549417406	fixation_1	999	999
303.14816134097055	3.005028890678659	face	1.5520731231663376	3
306.1532436630223	0.5977548549417406	fixation_2	999	999
306.7009689195547	1.000755284447223	feedback loss	999	999
307.7017356751021	5.316437339410186	ITI	999	999
313.0246590427123	0.6157748200930655	fixation_1	999	999
313.6405835915357	3.0055565633811057	face	1.2993540838360786	3
316.6461944920011	0.6157748200930655	fixation_2	999	999
317.1931665770244	1.0007637368980795	feedback win	999	999
318.19393333257176	1.1182470035273582	ITI	999	999
319.3186068953946	0.609781447565183	fixation_1	999	999
319.92853656224906	3.0065898722968996	face	1.3009923447389156	3
322.9351771492511	0.609781447565183	fixation_2	999	999
323.4816906901542	1.000711512984708	feedback loss	999	999
324.4824052217882	1.11670624720864	ITI	999	999
325.60569409653544	0.5947303962893784	fixation_1	999	999
326.200566976564	3.0055121881887317	face	1.3005178014282137	3
329.20612776628695	0.5947303962893784	fixation_2	999	999
329.7531025679782	1.001096400199458	feedback loss	999	999
330.75421074125916	5.316870224196464	ITI	999	999
336.07809828897007	0.6145437848754227	fixation_1	999	999
336.6927918025758	3.0052558986935765	face	1.3012908964883536	3
339.6980966045521	0.6145437848754227	fixation_2	999	999
340.24541705008596	1.000599820399657	feedback loss	999	999
341.24602894531563	1.1177941949572414	ITI	999	999
342.3704552745912	0.5941486884839833	fixation_1	999	999
342.9647485599853	3.006466406630352	face	1.2997139154467732	3
345.9712680960074	0.5941486884839833	fixation_2	999	999
346.5170212206431	1.000834978884086	feedback loss	999	999
347.51785921817645	3.2168496667873114	ITI	999	999
350.7414044125471	0.6125417677685618	fixation_1	999	999
351.354103757767	3.0058834911324084	face	1.3008794444613159	2
354.36003494472243	0.6125417677685618	fixation_2	999	999
354.9075340987183	1.0007863773498684	feedback win	999	999
355.9083237966988	7.416623020777479	ITI	999	999
363.3315729147289	0.6166719845496118	fixation_1	999	999
363.9483973446768	3.00654911971651	face	1.549694369547069	2
366.95499868830666	0.6166719845496118	fixation_2	999	999
367.50085022323765	1.0008461480028927	feedback loss	999	999
368.50169939012267	1.1181609698105603	ITI	999	999
369.6277328876313	0.5920105269178748	fixation_1	999	999
370.21990914247	3.006472142180428	face	1.3016211448702961	2
373.22643048968166	0.5920105269178748	fixation_2	999	999
373.7730246305	1.0005587658379227	feedback win	999	999
374.77359547116794	1.118966365000233	ITI	999	999
375.8994725989178	0.5905515779741108	fixation_1	999	999
376.4902152621653	3.0056299183052033	face	1.0476964274421334	2
379.49589348002337	0.5905515779741108	fixation_2	999	999
380.044275006745	1.001029384555295	feedback loss	999	999
381.0453080139123	1.1177350278012455	ITI	999	999
382.1699978776742	0.5935060023330152	fixation_1	999	999
382.76365964626893	3.0051756005268544	face	1.3002289095893502	2
385.7688907913398	0.5935060023330152	fixation_2	999	999
386.3164358299691	1.0007148336153477	feedback loss	999	999
387.3171533802524	3.2169106449000537	ITI	999	999
390.5410910088103	0.5960836897138506	fixation_1	999	999
391.1373265404254	3.005465699825436	face	1.300512669607997	2
394.1428420492448	0.5960836897138506	fixation_2	999	999
394.69034392014146	1.0005252577830106	feedback loss	999	999
395.69088095077313	5.316923353821039	ITI	999	999
401.0147328777239	0.6140088671818376	fixation_1	999	999
401.6289032464847	3.00584817212075	face	1.2998914166819304	2
404.6347994164098	0.6140088671818376	fixation_2	999	999
405.1822581195738	1.0009143711067736	feedback loss	999	999
406.18317581131123	5.315944985486567	ITI	999	999
411.5062356251292	0.59819649416022	fixation_1	999	999
412.1045854703989	3.005138772306964	face	1.3001220470760018	2
415.10977405146696	0.59819649416022	fixation_2	999	999
415.6575092696585	1.000752265797928	feedback loss	999	999
416.6582736102864	5.316428886959329	ITI	999	999
421.9816860111896	0.6144326957874	fixation_1	999	999
422.59630043408833	3.005393854342401	face	1.8004056559875607	3
425.60174711607397	0.6144326957874	fixation_2	999	999
426.1494865603745	1.0004102445673198	feedback win	999	999
427.14990887977183	3.2177887915167958	ITI	999	999
430.374749106355	0.6117031665053219	fixation_1	999	999
430.98662464204244	3.006619757739827	face	2.0639923999551684	2
433.99329692544416	0.6117031665053219	fixation_2	999	999
434.53912763134576	1.0012536756694317	feedback win	999	999
435.5403843256645	1.1174068928230554	ITI	999	999
436.6649066505488	1.22716343565844	fixation_1	999	999
437.8922590583097	3.006362260552123	face	2.0667122695595026	2
440.8986744484864	1.22716343565844	fixation_2	999	999
441.4447469539009	1.0013001640327275	feedback loss	999	999
442.4460498348344	3.2165465869475156	ITI	999	999
445.66966415802017	0.6126202545128763	fixation_1	999	999
446.2824431974441	3.0051070754416287	face	1.8011382999829948	2
449.2876015913207	0.6126202545128763	fixation_2	999	999
449.8353615629021	1.000918899429962	feedback win	999	999
450.83628348098136	3.217316361144185	ITI	999	999
454.0607351977378	0.5952743703965098	fixation_1	999	999
454.6561577874236	3.005397476721555	face	2.317363181617111	3
457.6616074880585	0.5952743703965098	fixation_2	999	999
458.20895932847634	1.0005777834448963	feedback win	999	999
459.209539828822	1.1179804501589388	ITI	999	999
460.33471117913723	0.6097071869298816	fixation_1	999	999
460.94458832009695	3.0058155697770417	face	2.0666383106727153	2
463.95045098196715	0.6097071869298816	fixation_2	999	999
464.4969775034115	1.0009336911607534	feedback win	999	999
465.49792326940224	1.1175834881141782	ITI	999	999
466.6225515513215	1.3442337410524487	fixation_1	999	999
467.9669480014127	3.0055505260825157	face	2.068264195229858	3
470.97254682704806	1.3442337410524487	fixation_2	999	999
471.51980629446916	1.0006176307797432	feedback win	999	999
472.5204269438982	1.1180565219838172	ITI	999	999
473.64580175606534	0.609478669706732	fixation_1	999	999
474.2557709682733	3.0056009385734797	face	2.0666730259545147	3
477.26142503647134	0.609478669706732	fixation_2	999	999
477.80813479446806	1.0009007868357003	feedback win	999	999
478.80904765613377	5.316403831588104	ITI	999	999
484.13278215471655	0.5976495014037937	fixation_1	999	999
484.7306127795018	3.0058095324784517	face	2.0677845200989395	3
487.73647574335337	0.5976495014037937	fixation_2	999	999
488.2837029104121	1.0009671989828348	feedback win	999	999
489.28467312804423	5.315693526063114	ITI	999	999
494.6076623038389	0.5982668304350227	fixation_1	999	999
495.20616640592925	3.00617359043099	face	1.8003748648334295	2
498.2123922202736	0.5982668304350227	fixation_2	999	999
498.7592037091963	1.000690683722496	feedback loss	999	999
499.7598974115681	5.316408661426976	ITI	999	999
