onset	duration	trial_type	rt	resp	gender
0.612376039847732	3.00609691487625	decision	2.56785078090616	right	o
4.16513380943798	1.00082441326231	win	NaN	n/a	n/a
11.1042835982516	3.00614913878962	decision	1.80061153275892	right	o
14.6572007562499	1.00070607941598	loss	NaN	n/a	n/a
17.3760393087287	3.00647214218043	decision	2.31781749939546	right	o
20.9289537498262	1.00078094378114	win	NaN	n/a	n/a
23.6479208997916	3.0064627842512	decision	1.55087559577078	left	o
27.2007683254778	1.00103361066431	win	NaN	n/a	n/a
32.0213568618055	3.00600816425867	decision	2.0509925710503	left	o
35.5743202061858	1.00075317150913	loss	NaN	n/a	n/a
42.51362485555	3.00650625373237	decision	1.8006797558628	left	o
46.0663159112446	1.00081173446961	loss	NaN	n/a	n/a
50.8870167438872	3.00637886370532	decision	2.04999337391928	right	o
54.439941448858	1.00081656454131	win	NaN	n/a	n/a
59.2606033401098	3.00660285283811	decision	2.31762279174291	right	o
62.8130812740419	1.00107285403647	loss	NaN	n/a	n/a
65.5323210146744	3.00589284929447	decision	1.55076420470141	left	o
69.0850359182805	1.00085701537319	win	NaN	n/a	n/a
72.0208983176854	3.00525227608159	decision	1.5512662185356	left	o
75.5737704967614	1.00092795537785	win	NaN	n/a	n/a
78.3092588160653	3.00597858079709	decision	1.80087446351536	right	o
81.8622330280486	1.00090410746634	loss	NaN	n/a	n/a
86.6998021830805	3.006236983696	decision	1.80045425752178	right	o
90.2524165632203	1.00076766125858	loss	NaN	n/a	n/a
92.9712481724564	3.00683257775381	decision	2.05082110781223	left	o
96.5248270346783	1.00026594963856	win	NaN	n/a	n/a
103.446813269984	3.00600393814966	decision	1.80122463544831	right	o
106.999525456689	1.00075347325765	win	NaN	n/a	n/a
109.718370348448	3.00523114507087	decision	1.80132817779668	left	o
113.271121476777	1.00087180710398	win	NaN	n/a	n/a
120.210439710179	3.00560033507645	decision	2.31740665133111	right	o
123.763647873187	1.00053703086451	win	NaN	n/a	n/a
128.583917934215	3.00528185977601	decision	2.05101551348343	right	o
132.136853204574	1.000758001348	win	NaN	n/a	n/a
137.25822639768	3.00655727018602	decision	2.04998582694679	right	o
140.81084017409	1.00057536852546	win	NaN	n/a	n/a
145.631501763361	3.00631999853067	decision	2.31838381197304	left	o
149.184005960124	1.00079845241271	win	NaN	n/a	n/a
162.411861589178	3.00580440065823	decision	2.56689233635552	left	o
165.964961379999	1.00022821547464	loss	NaN	n/a	n/a
172.903856690275	3.00583971990272	decision	1.80019706231542	left	o
176.456542614382	1.000686759362	win	NaN	n/a	n/a
183.395516109653	3.00514601706527	decision	2.56812789966352	right	o
186.948660879396	1.00050956034102	loss	NaN	n/a	n/a
191.769090932794	3.00558071327396	decision	1.80055870511569	left	o
195.322081747698	1.00046246824786	loss	NaN	n/a	n/a
198.057615045924	3.0055170180276	decision	1.80049531208351	left	o
201.61033628881	1.00109006091952	loss	NaN	n/a	n/a
204.346440125722	3.00597978825681	decision	1.79953203746118	right	o
207.898909606971	1.00068072206341	win	NaN	n/a	n/a
214.838108902797	3.00640029669739	decision	1.5504270135425	right	o
218.390861842548	1.00098561285995	loss	NaN	n/a	n/a
225.330096155405	3.00551339564845	decision	2.31760075525381	right	o
228.883015426574	1.00115285045467	win	NaN	n/a	n/a
233.703477780335	3.00698472117074	decision	1.81397119350731	left	o
237.256658472819	1.00074351159856	loss	NaN	n/a	n/a
239.975511213299	3.00590099976398	decision	1.80051432992332	left	o
243.528443163028	1.00045914785005	win	NaN	n/a	n/a
248.349009964615	3.00595080852509	decision	2.05049236863852	left	o
251.901421184652	1.00113202119246	loss	NaN	n/a	n/a
254.63780817762	3.00551973516122	decision	2.31754339952022	left	o
258.190274338471	1.00052435230464	loss	NaN	n/a	n/a
260.926133055007	3.00510435877368	decision	2.31816887878813	right	o
264.478854901856	1.0008778446354	loss	NaN	n/a	n/a
267.198186109774	3.00511160376482	decision	1.80013155587949	left	o
270.750316588674	1.00133789796382	win	NaN	n/a	n/a
277.823101321468	3.00532804592513	decision	2.0511558840517	left	o
281.376106324373	1.00084282737225	loss	NaN	n/a	n/a
284.111628453247	3.00543762580492	decision	2.31806412898004	right	o
287.664529913804	1.00100251799449	loss	NaN	n/a	n/a
292.635360597167	3.00583126721904	decision	2.31782504613511	right	o
296.188454350457	1.00055212434381	win	NaN	n/a	n/a
303.160673344275	3.00544245587662	decision	1.80021517467685	left	o
306.713413001504	1.00086486409418	loss	NaN	n/a	n/a
313.635828197235	3.00616574170999	decision	1.80122946552001	right	o
317.189086772967	1.00028677866794	win	NaN	n/a	n/a
319.907832348486	3.00529544404708	decision	1.54973874473944	left	o
323.460399636766	1.00080267828889	loss	NaN	n/a	n/a
326.196392082609	3.00612680031918	decision	1.80130825424567	left	o
329.749323428841	1.0006472140085	loss	NaN	n/a	n/a
336.688016182743	3.00595986493863	decision	1.79995043273084	left	o
340.24087960762	1.00070245680399	loss	NaN	n/a	n/a
342.959999806713	3.00694608176127	decision	1.55098457168788	left	o
346.51300330041	1.00055242632516	loss	NaN	n/a	n/a
351.333426410565	3.00548109551892	decision	1.55124086118303	left	o
354.88641420682	1.0009291630704	win	NaN	n/a	n/a
363.910690777469	3.00520910834894	decision	1.80119565571658	left	o
367.463293384528	1.0009530109819	loss	NaN	n/a	n/a
370.182210423751	3.00561754172668	decision	2.56768143060617	left	o
373.735114299459	1.00076252943836	win	NaN	n/a	n/a
376.454258648446	3.00553573435172	decision	1.80037124245428	left	o
380.006887518568	1.00080569717102	loss	NaN	n/a	n/a
382.775998072932	3.00580500438809	decision	2.06745638465509	right	o
386.328760672361	1.00076162372716	loss	NaN	n/a	n/a
391.149477504427	3.00582583341748	decision	1.80082646594383	left	o
394.702280554688	1.00086637353525	loss	NaN	n/a	n/a
401.641626560362	3.00505968183279	decision	1.55108660459518	left	o
405.194197772769	1.00083346944302	loss	NaN	n/a	n/a
412.133215341484	3.00544909690507	decision	1.8004524463322	left	o
415.686224872479	1.0007081925869	loss	NaN	n/a	n/a
422.608841417124	3.00570840528235	decision	2.31774686137214	left	o
426.161512549268	1.00091889942996	win	NaN	n/a	n/a
430.982148781419	3.00587564241141	decision	2.06742317881435	right	o
434.535066845128	1.00072026741691	win	NaN	n/a	n/a
437.253745706985	3.00579172209837	decision	1.80114977131598	right	o
440.806691542966	1.0010176114738	loss	NaN	n/a	n/a
445.627521577058	3.00684404885396	decision	2.56896227481775	right	o
449.180282063549	1.00091014499776	win	NaN	n/a	n/a
454.001089155208	3.00536245969124	decision	1.80037758196704	left	o
457.553977937438	1.00068072206341	win	NaN	n/a	n/a
460.289600891527	3.09125509159639	decision	3.08581414516084	left	o
463.925992080709	1.00088569335639	win	NaN	n/a	n/a
466.64504435868	3.00537634571083	decision	1.80138523154892	left	o
470.197643947089	1.0009403321892	win	NaN	n/a	n/a
472.933524700347	3.07374317734502	decision	3.06851897528395	right	o
476.553226577118	1.00049627828412	win	NaN	n/a	n/a
483.775623449357	3.00573044200428	decision	1.80109422677197	right	o
487.328418349149	1.0007272104267	win	NaN	n/a	n/a
494.267577495892	3.00570297148079	decision	1.80115067679435	left	o
497.820164707489	1.00093550235033	loss	NaN	n/a	n/a
