onset	duration	trial_type	rt	resp	gender
0.6123760398477316	3.0060969148762524	decision	2.5678507809061557	right	o
4.165133809437975	1.0008244132623076	win	n/a	n/a	n/a
11.10428359825164	3.006149138789624	decision	1.8006115327589214	right	o
14.65720075624995	1.000706079415977	loss	n/a	n/a	n/a
17.37603930872865	3.006472142180428	decision	2.31781749939546	right	o
20.928953749826178	1.0007809437811375	win	n/a	n/a	n/a
23.647920899791643	3.006462784251198	decision	1.5508755957707763	left	o
27.20076832547784	1.001033610664308	win	n/a	n/a	n/a
32.02135686180554	3.006008164258674	decision	2.050992571050301	left	o
35.5743202061858	1.0007531715091318	loss	n/a	n/a	n/a
42.513624855550006	3.0065062537323684	decision	1.8006797558628023	left	o
46.0663159112446	1.0008117344696075	loss	n/a	n/a	n/a
50.887016743887216	3.006378863705322	decision	2.0499933739192784	right	o
54.43994144885801	1.00081656454131	win	n/a	n/a	n/a
59.26060334010981	3.006602852838114	decision	2.317622791742906	right	o
62.813081274041906	1.0010728540364653	loss	n/a	n/a	n/a
65.53232101467438	3.0058928492944688	decision	1.5507642047014087	left	o
69.08503591828048	1.0008570153731853	win	n/a	n/a	n/a
72.02089831768535	3.005252276081592	decision	1.551266218535602	left	o
75.57377049676143	1.000927955377847	win	n/a	n/a	n/a
78.30925881606527	3.005978580797091	decision	1.8008744635153562	right	o
81.86223302804865	1.00090410746634	loss	n/a	n/a	n/a
86.69980218308046	3.006236983695999	decision	1.8004542575217783	right	o
90.25241656322032	1.0007676612585783	loss	n/a	n/a	n/a
92.9712481724564	3.006832577753812	decision	2.050821107812226	left	o
96.52482703467831	1.0002659496385604	win	n/a	n/a	n/a
103.44681326998398	3.006003938149661	decision	1.8012246354483068	right	o
106.9995254566893	1.000753473257646	win	n/a	n/a	n/a
109.71837034844793	3.0052311450708658	decision	1.8013281777966768	left	o
113.2711214767769	1.0008718071039766	win	n/a	n/a	n/a
120.21043971017934	3.0056003350764513	decision	2.317406651331112	right	o
123.76364787318744	1.000537030864507	win	n/a	n/a	n/a
128.5839179342147	3.005281859776005	decision	2.051015513483435	right	o
132.13685320457444	1.0007580013480037	win	n/a	n/a	n/a
137.25822639768012	3.006557270186022	decision	2.049985826946795	right	o
140.81084017409012	1.0005753685254604	win	n/a	n/a	n/a
145.63150176336057	3.006319998530671	decision	2.3183838119730353	left	o
149.1840059601236	1.0007984524127096	win	n/a	n/a	n/a
162.41186158917844	3.005804400658235	decision	2.5668923363555223	left	o
165.9649613799993	1.0002282154746354	loss	n/a	n/a	n/a
172.90385669027455	3.005839719902724	decision	1.8001970623154193	left	o
176.45654261438176	1.0006867593619972	win	n/a	n/a	n/a
183.39551610965282	3.0051460170652717	decision	2.568127899663523	right	o
186.9486608793959	1.0005095603410155	loss	n/a	n/a	n/a
191.76909093279392	3.0055807132739574	decision	1.8005587051156908	left	o
195.32208174769767	1.0004624682478607	loss	n/a	n/a	n/a
198.05761504592374	3.0055170180276036	decision	1.8004953120835125	left	o
201.61033628880978	1.0010900609195232	loss	n/a	n/a	n/a
204.34644012572244	3.005979788256809	decision	1.7995320374611765	right	o
207.89890960697085	1.0006807220634073	win	n/a	n/a	n/a
214.8381089027971	3.006400296697393	decision	1.5504270135425031	right	o
218.39086184254847	1.0009856128599495	loss	n/a	n/a	n/a
225.33009615540504	3.0055133956484497	decision	2.3176007552538067	right	o
228.88301542657427	1.0011528504546732	win	n/a	n/a	n/a
233.70347778033465	3.0069847211707383	decision	1.8139711935073137	left	o
237.25665847281925	1.0007435115985572	loss	n/a	n/a	n/a
239.9755112132989	3.0059009997639805	decision	1.8005143299233168	left	o
243.528443163028	1.0004591478500515	win	n/a	n/a	n/a
248.3490099646151	3.0059508085250854	decision	2.0504923686385155	left	o
251.90142118465155	1.0011320211924613	loss	n/a	n/a	n/a
254.63780817762017	3.005519735161215	decision	2.3175433995202184	left	o
258.1902743384708	1.0005243523046374	loss	n/a	n/a	n/a
260.9261330550071	3.0051043587736785	decision	2.3181688787881285	right	o
264.4788549018558	1.0008778446353972	loss	n/a	n/a	n/a
267.1981861097738	3.005111603764817	decision	1.8001315558794886	left	o
270.75031658867374	1.0013378979638219	win	n/a	n/a	n/a
277.82310132146813	3.0053280459251255	decision	2.0511558840516955	left	o
281.3761063243728	1.000842827372253	loss	n/a	n/a	n/a
284.11162845324725	3.005437625804916	decision	2.3180641289800406	right	o
287.66452991380356	1.0010025179944932	loss	n/a	n/a	n/a
292.63536059716716	3.005831267219037	decision	2.3178250461351126	right	o
296.1884543504566	1.0005521243438125	win	n/a	n/a	n/a
303.160673344275	3.0054424558766186	decision	1.8002151746768504	left	o
306.7134130015038	1.0008648640941828	loss	n/a	n/a	n/a
313.63582819723524	3.0061657417099923	decision	1.8012294655200094	right	o
317.18908677296713	1.0002867786679417	win	n/a	n/a	n/a
319.9078323484864	3.0052954440470785	decision	1.549738744739443	left	o
323.46039963676594	1.000802678288892	loss	n/a	n/a	n/a
326.19639208260924	3.00612680031918	decision	1.8013082542456686	left	o
329.7493234288413	1.0006472140084952	loss	n/a	n/a	n/a
336.688016182743	3.0059598649386317	decision	1.7999504327308387	left	o
340.2408796076197	1.0007024568039924	loss	n/a	n/a	n/a
342.9599998067133	3.0069460817612708	decision	1.5509845716878772	left	o
346.51300330040976	1.0005524263251573	loss	n/a	n/a	n/a
351.33342641056515	3.005481095518917	decision	1.5512408611830324	left	o
354.8864142068196	1.0009291630703956	win	n/a	n/a	n/a
363.9106907774694	3.005209108348936	decision	1.8011956557165831	left	o
367.4632933845278	1.0009530109819025	loss	n/a	n/a	n/a
370.1822104237508	3.0056175417266786	decision	2.5676814306061715	left	o
373.7351142994594	1.0007625294383615	win	n/a	n/a	n/a
376.45425864844583	3.0055357343517244	decision	1.8003712424542755	left	o
380.00688751856796	1.0008056971710175	loss	n/a	n/a	n/a
382.77599807293154	3.005805004388094	decision	2.067456384655088	right	o
386.32876067236066	1.0007616237271577	loss	n/a	n/a	n/a
391.1494775044266	3.0058258334174752	decision	1.8008264659438282	left	o
394.7022805546876	1.0008663735352457	loss	n/a	n/a	n/a
401.64162656036206	3.0050596818327904	decision	1.5510866045951843	left	o
405.19419777276926	1.0008334694430232	loss	n/a	n/a	n/a
412.1332153414842	3.0054490969050676	decision	1.8004524463322014	left	o
415.6862248724792	1.0007081925868988	loss	n/a	n/a	n/a
422.6088414171245	3.0057084052823484	decision	2.317746861372143	left	o
426.1615125492681	1.000918899429962	win	n/a	n/a	n/a
430.9821487814188	3.005875642411411	decision	2.0674231788143516	right	o
434.5350668451283	1.0007202674169093	win	n/a	n/a	n/a
437.2537457069848	3.0057917220983654	decision	1.801149771315977	right	o
440.8066915429663	1.0010176114737988	loss	n/a	n/a	n/a
445.62752157705836	3.0068440488539636	decision	2.56896227481775	right	o
449.1802820635494	1.0009101449977607	win	n/a	n/a	n/a
454.0010891552083	3.0053624596912414	decision	1.800377581967041	left	o
457.5539779374376	1.0006807220634073	win	n/a	n/a	n/a
460.2896008915268	3.0912550915963948	decision	3.085814145160839	left	o
463.92599208070897	1.0008856933563948	win	n/a	n/a	n/a
466.64504435868	3.005376345710829	decision	1.8013852315489203	left	o
470.1976439470891	1.0009403321892023	win	n/a	n/a	n/a
472.93352470034733	3.0737431773450226	decision	3.0685189752839506	right	o
476.55322657711804	1.0004962782841176	win	n/a	n/a	n/a
483.7756234493572	3.0057304420042783	decision	1.8010942267719656	right	o
487.3284183491487	1.000727210426703	win	n/a	n/a	n/a
494.2675774958916	3.005702971480787	decision	1.8011506767943501	left	o
497.8201647074893	1.0009355023503304	loss	n/a	n/a	n/a
