onset	duration	trial_type	rt	resp	gender
0.688164515674089	3.00652799248473	decision	2.31618093874522	left	B
4.23840409677177	1.01663407953174	loss	NaN	n/a	n/a
11.2548573546851	3.00676677362026	decision	2.31636900530339	left	B
14.8046223922365	1.00001630111456	win	NaN	n/a	n/a
21.8049034355199	3.00673719011684	decision	2.0665100552219	right	B
25.3548502003073	1.0164882751219	loss	NaN	n/a	n/a
32.3884694370713	3.006712738445	decision	1.54933185053551	right	B
35.938066633521	1.0000214329466	loss	NaN	n/a	n/a
38.7382656882373	3.00750817244307	decision	1.55039142295755	right	B
42.2882100380448	1.01644722046376	loss	NaN	n/a	n/a
45.4049492597633	3.00692435105702	decision	2.06672740341082	left	B
48.9547656156369	1.01647620022277	win	NaN	n/a	n/a
51.7381832770493	3.00630822931544	decision	1.81003436214496	left	B
55.2879881617687	1.00004135653035	win	NaN	n/a	n/a
60.43825786974	3.0070713629575	decision	1.54968473947065	left	B
63.988125845809	1.01649491631633	loss	NaN	n/a	n/a
68.9046107097715	3.00673205828434	decision	1.29955802849508	left	B
72.4544753652431	1.00011984337652	win	NaN	n/a	n/a
75.2382115021264	3.00709068279639	decision	1.29975092501263	right	B
78.7879789546578	1.00011682465174	win	NaN	n/a	n/a
83.688117725439	3.00726576883744	decision	2.06598540084269	right	B
87.2380270580384	1.01669837837107	loss	NaN	n/a	n/a
94.2711817130476	3.00681718632541	decision	1.04970783271574	left	B
97.8211707399828	1.01666064431083	loss	NaN	n/a	n/a
105.504658647122	3.00633056787956	decision	1.30043889240551	left	B
109.054698388635	1.01637778979239	win	NaN	n/a	n/a
116.071394653899	3.00704449630621	decision	1.04944399616397	left	B
119.621221575309	1.01663015518943	win	NaN	n/a	n/a
124.537940994193	3.00668919239115	decision	1.29940437540017	right	B
128.087872967228	1.01644661671889	win	NaN	n/a	n/a
130.871040678223	3.00674594441853	decision	1.2995622547096	left	B
134.423184772827	1.01451251970821	win	NaN	n/a	n/a
137.221367017472	3.00688782448651	decision	1.29942460085704	left	B
140.770870029707	1.0001551624573	loss	NaN	n/a	n/a
143.554259013233	3.00656723590737	decision	1.81036974247536	left	B
147.104465992102	1.0000540351748	loss	NaN	n/a	n/a
156.204460648959	3.00705989180278	decision	1.54968685257791	right	B
159.754463260156	1.01647106839027	loss	NaN	n/a	n/a
164.654151335318	3.00663727032406	decision	1.30019648880034	right	B
168.20439514263	1.01671317012278	win	NaN	n/a	n/a
171.00432854956	3.00649991834371	decision	2.06637813694579	left	B
174.554290106099	1.016655814351	loss	NaN	n/a	n/a
181.570920261289	3.00710064458826	decision	1.2998363549259	left	B
185.120776766203	1.01683240975444	loss	NaN	n/a	n/a
187.920867146825	3.00706864610493	decision	1.29980435644256	right	B
191.470798516115	1.01668207725697	win	NaN	n/a	n/a
194.254537671724	3.00711060638014	decision	1.80993444235219	right	B
197.804343462061	1.01655317770565	win	NaN	n/a	n/a
204.820850453276	3.00785019396835	decision	1.29974760441564	left	B
208.371100599911	1.01632707521458	loss	NaN	n/a	n/a
215.77080724023	3.00681628070788	decision	1.29957734833397	right	B
219.320746156333	1.01673128247194	loss	NaN	n/a	n/a
224.237592663533	3.00705596746047	decision	1.29940226229246	right	B
227.787689458945	1.01623289099962	loss	NaN	n/a	n/a
230.820618615208	3.0065249737595	decision	1.81019405268944	right	B
234.370527947807	1.000225196874	loss	NaN	n/a	n/a
241.387535745475	3.00689627691645	decision	1.54963160991338	right	B
244.937477076558	1.01628300183211	loss	NaN	n/a	n/a
247.754130596678	3.00702759144724	decision	1.54962859118859	left	B
251.304222864003	1.01625492769108	win	NaN	n/a	n/a
254.087742558315	3.00688057954676	decision	1.81564496414831	left	B
257.637292662657	1.01646261596034	loss	NaN	n/a	n/a
260.420588367585	3.00688148516429	decision	1.81041864581812	right	B
263.97042313768	1.00000513183249	win	NaN	n/a	n/a
268.854286453442	3.00719784752846	decision	1.29988103205369	right	B
272.403816936073	1.01682848541213	win	NaN	n/a	n/a
275.853912433433	3.00667802310954	decision	1.54952535079838	right	B
279.403797314361	1.00011833401368	win	NaN	n/a	n/a
284.304038118042	3.00654761419628	decision	1.29928332453392	left	B
287.853474416458	1.00012769206114	win	NaN	n/a	n/a
294.870405538515	3.0079709429624	decision	1.29985567476524	right	B
298.420592895673	1.01652449981975	win	NaN	n/a	n/a
305.937565223324	3.00702487459421	decision	2.06567628341827	left	B
309.487121063243	1.01658125184713	win	NaN	n/a	n/a
312.320577107741	3.0069488027284	decision	2.566834719079	left	B
315.870533532448	1.01645114480607	loss	NaN	n/a	n/a
318.703751399556	3.00745413726827	decision	1.8099742895206	left	B
322.254042298976	1.01610851953546	win	NaN	n/a	n/a
327.153770825051	3.00636075512784	decision	1.55017377289596	right	B
330.703660234066	1.01647137026248	loss	NaN	n/a	n/a
337.737072386305	3.00712509625964	decision	1.54973605779287	right	B
341.286957267233	1.01663045706209	win	NaN	n/a	n/a
348.320260443505	3.0073795747644	decision	1.54984654312238	left	B
351.870401916045	1.01648676575905	win	NaN	n/a	n/a
365.203391114746	3.00658746136423	decision	1.30076521656201	right	B
368.753524134856	1.00000996179187	loss	NaN	n/a	n/a
373.653496573898	3.00653070933686	decision	1.81030121742151	right	B
377.203427037571	1.01678924198904	win	NaN	n/a	n/a
382.103421815177	3.00680843202326	decision	1.79959198914958	right	B
385.653311526065	1.0000863355308	loss	NaN	n/a	n/a
391.186861483093	3.00816625445987	decision	1.54978828173307	left	B
394.737164759285	1.01612904686453	loss	NaN	n/a	n/a
401.753794612603	3.00807116462693	decision	1.80991874498295	right	B
405.303313322206	1.01657642188729	loss	NaN	n/a	n/a
408.120259658636	3.00766544800763	decision	1.5496234593561	right	B
411.670100768054	1.01656525260523	loss	NaN	n/a	n/a
418.68695883697	3.00715196291094	decision	1.04969666343368	left	B
422.236837982321	1.01640043022871	win	NaN	n/a	n/a
425.053419656789	3.00798211224401	decision	1.54965757094669	left	B
428.603521584034	1.0163385463693	loss	NaN	n/a	n/a
433.503275467397	3.00755466080591	decision	1.04973439749392	left	B
437.053337547473	1.01646774779238	loss	NaN	n/a	n/a
439.853319857745	3.00715528350884	decision	1.29948437160874	right	B
443.403600191628	1.01633703700736	win	NaN	n/a	n/a
446.186641116179	3.007089173434	decision	1.81021156129373	right	B
449.737038274714	1.01577766729224	win	NaN	n/a	n/a
452.536716599394	3.00685975034594	decision	1.54933396364322	right	B
456.086483448181	1.00000362246919	win	NaN	n/a	n/a
461.253537266309	3.00711694570327	decision	1.80991693374835	left	B
464.803340641666	1.01629960481841	win	NaN	n/a	n/a
469.719797129615	3.00645403372528	decision	1.30059556422475	right	B
473.26978253408	1.00009056174622	loss	NaN	n/a	n/a
480.269864341524	3.00676979234504	decision	1.81625716154667	right	B
483.819797522049	1.01652359420314	loss	NaN	n/a	n/a
488.786461139804	3.00711332323317	decision	1.29969296549643	right	B
492.336702834009	1.01620391124106	loss	NaN	n/a	n/a
495.169626979189	3.00719301756908	decision	1.29994653838276	right	B
498.719603931225	1.01665370124374	win	NaN	n/a	n/a
501.519736875867	3.00783902468629	decision	1.29972858644851	right	B
505.070477263417	1.01588936011194	win	NaN	n/a	n/a
