onset	duration	trial_type	rt	resp	gender
0.696338015084621	3.00614944437984	decision	2.0672454165760428	right	A
4.24631889141165	1.0163838272565	win	n/a	n/a	n/a
11.2794738483499	3.00695182144409	decision	2.566401230171323	right	A
14.82935088058	1.00003139470937	loss	n/a	n/a	n/a
17.612798729213	3.0072736175498	decision	2.317707507929299	left	A
21.1628605074366	1.0165006518946	win	n/a	n/a	n/a
23.9462555284263	3.00608846615069	decision	2.0672260967548937	right	A
27.496051960683	1.00004075281322	win	n/a	n/a	n/a
32.379360736697	3.00672511523589	decision	2.8290580642642453	left	A
35.9294448534492	1.01768550142879	loss	n/a	n/a	n/a
42.9793996178778	3.00695333082695	decision	2.5664875656948425	left	A
46.5293436658103	1.01661415596027	loss	n/a	n/a	n/a
51.4628109701443	3.00669673923403	decision	2.0662229745066725	right	A
55.0124658242567	1.00006882689195	win	n/a	n/a	n/a
59.9291363398079	3.006841034221	decision	2.066363043326419	right	A
63.4792177397176	1.00026957213413	loss	n/a	n/a	n/a
66.4296261278796	3.00647486292291	decision	2.832605971605517	left	A
69.9791789490846	1.00000482995529	win	n/a	n/a	n/a
72.7961910937447	3.00655636849115	decision	2.833099231182132	left	A
76.3457587066805	1.01715722453082	win	n/a	n/a	n/a
79.1294501664233	3.00694578402909	decision	1.799555160687305	right	A
82.6794301372138	1.01626579510048	loss	n/a	n/a	n/a
87.5958902476123	3.0895679811947	decision	3.0831706995377317	left	A
91.2290590302437	1.00002988538472	loss	n/a	n/a	n/a
94.0291856355616	3.00674232194433	decision	2.3162210877635516	left	A
97.5792643186287	1.00009056174895	win	n/a	n/a	n/a
104.595787007187	3.09032296435907	decision	3.083819121646229	left	A
108.229131479631	1.01671437761979	win	n/a	n/a	n/a
111.17927693692	3.00740191328805	decision	1.8128958113957196	left	A
114.729412975721	1.01620723184897	win	n/a	n/a	n/a
121.762624986528	3.007202375622	decision	1.812701103684958	right	A
125.312405419594	1.00011652277317	win	n/a	n/a	n/a
130.212417705799	3.00751451175893	decision	1.8119587991968729	left	A
133.76241941133	1.01651966990903	win	n/a	n/a	n/a
138.67899544083	3.07402245386038	decision-missed	n/a	n/a	A
142.295856166224	1.01641733507859	win	n/a	n/a	n/a
147.229246191215	3.00658051826758	decision	1.7977457370143384	left	A
150.778964740399	1.01648767135339	win	n/a	n/a	n/a
164.095673050324	3.00802165758796	decision	2.0662990463897586	right	A
167.645564874343	1.00003773404751	loss	n/a	n/a	n/a
174.662309137348	3.00701702589868	decision	2.066325913008768	left	A
178.212139983079	1.00014761567581	win	n/a	n/a	n/a
185.212063911196	3.00724463781808	decision	1.8123584784334525	left	A
188.762063503673	1.01669052970828	loss	n/a	n/a	n/a
193.662154880469	3.08978321636096	decision	3.0833530305535533	left	A
197.295320644393	1.01668026606785	loss	n/a	n/a	n/a
200.09550249239	3.00675952871097	decision	2.3163176869857125	right	A
203.645481255662	1.01652751857182	loss	n/a	n/a	n/a
206.445536920975	3.00703845883254	decision	2.56619625876192	left	A
209.995343918796	1.01635937555693	win	n/a	n/a	n/a
217.045429997728	3.00677099981112	decision	2.0663168568280526	left	A
220.595340537839	1.00007244938752	loss	n/a	n/a	n/a
227.595341745298	3.00802226125961	decision	1.5496654196176678	left	A
231.145153573074	1.01670290646143	win	n/a	n/a	n/a
236.04524434614	3.00691257801373	decision	1.5504554199287668	right	A
239.595309746801	1.01671135891229	loss	n/a	n/a	n/a
242.395232286362	3.00686790089821	decision	2.5664187387446873	left	A
245.945154297573	1.0011078719981	win	n/a	n/a	n/a
250.828699741629	3.00745051476406	decision	1.5498951445915736	left	A
254.378510060022	1.0000316966325	loss	n/a	n/a	n/a
257.145405032847	3.00673809577711	decision	2.3172042864607647	left	A
260.695087357366	1.01665943680564	loss	n/a	n/a	n/a
263.511910831672	3.00730259728152	decision	2.066692386229988	left	A
267.061833144806	1.01686078577768	loss	n/a	n/a	n/a
269.861930166604	3.00824896752601	decision	2.065781636920292	right	A
273.411835574894	1.00000513182022	win	n/a	n/a	n/a
280.428605195135	3.00652587937657	decision	2.833830970164854	left	A
283.978398910607	1.0166244196007	loss	n/a	n/a	n/a
287.128488098795	3.00700525287539	decision	1.5500255535007454	left	A
290.678302341606	1.00016119988868	loss	n/a	n/a	n/a
295.578465262137	3.00723407225451	decision	2.5668561520287767	left	A
299.12851224863	1.01657159189926	win	n/a	n/a	n/a
306.611754552287	3.00703332701232	decision	2.8336586009245366	right	A
310.161631282652	1.00005524267908	loss	n/a	n/a	n/a
317.161961229285	3.00703362893546	decision	1.7994917674805038	left	A
320.711639025714	1.01654532901011	win	n/a	n/a	n/a
323.528457066335	3.00679122528527	decision	2.0662815377581865	right	A
327.07821485895	1.00008059991524	loss	n/a	n/a	n/a
329.861737873871	3.00813184096478	decision	2.3158491808571853	left	A
333.411714825896	1.00014761561761	loss	n/a	n/a	n/a
340.411573549558	3.00741006387398	decision	1.550644693954382	right	A
343.961431261967	1.00014791754074	loss	n/a	n/a	n/a
346.761733255174	3.00731467222795	decision	2.06680407904787	left	A
350.311497990857	1.01653355598683	loss	n/a	n/a	n/a
355.228332725063	3.08923139341641	decision	3.0828721476136707	left	A
358.86144656688	1.01658940239577	win	n/a	n/a	n/a
368.011539679486	3.00652980367886	decision	2.5790584415663034	right	A
371.561420636077	1.01662985328585	loss	n/a	n/a	n/a
374.378299956792	3.00702064839425	decision	1.8126241262070835	right	A
377.928360527498	1.01620692998404	win	n/a	n/a	n/a
380.728219975659	3.00740463018883	decision	1.799918917065952	left	A
384.278017615434	1.00009056174895	loss	n/a	n/a	n/a
387.061651719443	3.00724433589494	decision	1.5494595426134765	left	A
390.611173749669	1.0000881467131	loss	n/a	n/a	n/a
395.512769658933	3.00729837105609	decision	2.0658438226091675	left	A
399.06136675179	1.00007033633301	loss	n/a	n/a	n/a
406.07808445004	3.0067411144264	decision	2.5662032018299215	left	A
409.627870316792	1.00006309134187	loss	n/a	n/a	n/a
416.844633175118	3.00696661317488	decision	2.3163463648525067	right	A
420.394448625389	1.00006460066652	loss	n/a	n/a	n/a
427.41125296097	3.00657659396529	decision	1.8120240037096664	left	A
430.961190971488	1.01654985710047	win	n/a	n/a	n/a
435.87801514013	3.00738832901698	decision	2.066911243717186	left	A
439.427832703455	1.01658366684569	win	n/a	n/a	n/a
442.244490751647	3.00711030454841	decision	2.3164016075315885	left	A
445.794541964366	1.01653385785175	loss	n/a	n/a	n/a
450.711217007949	3.00662308232859	decision	2.316175505053252	right	A
454.261085285922	1.01666970044607	win	n/a	n/a	n/a
459.194488593261	3.00705717498204	decision	2.0673471476184204	right	A
462.744414830755	1.01641703321366	win	n/a	n/a	n/a
465.544472609123	3.00677250919398	decision	2.567317111301236	left	A
469.09426723019	1.01678592141252	win	n/a	n/a	n/a
471.89457012905	3.0069014087203	decision	1.8123599877581	right	A
475.444273886504	1.00015335122589	win	n/a	n/a	n/a
478.227857275866	3.00648603221634	decision	2.833896778349299	left	A
481.777714384545	1.01652057550382	win	n/a	n/a	n/a
488.810962921882	3.00743753428105	decision	1.8128146077506244	right	A
492.361057302332	1.01656978070969	win	n/a	n/a	n/a
499.394377987192	3.00680118711898	decision	1.5503050874685869	left	A
502.944127931143	1.01694078196306	loss	n/a	n/a	n/a
