onset	duration	trial_type	rt	resp	gender
0.724649126059376	3.00663576100487	decision	2.066122149117291	right	A
4.27447061380371	1.01679135509767	win	n/a	n/a	n/a
11.757842420775	3.00672239839332	decision	2.5662756512174383	right	A
15.3077550739981	1.00000603741501	loss	n/a	n/a	n/a
18.1246672988054	3.0066538733081	decision	1.799260231317021	left	A
21.6743327184231	1.00001418800093	win	n/a	n/a	n/a
24.5245112911216	3.00706049555447	decision	1.7992321571218781	right	A
28.0745612962637	1.01635575311957	win	n/a	n/a	n/a
33.0410815246287	3.00615819869563	decision	2.315246945247054	left	A
36.5908930505393	1.00011561712017	loss	n/a	n/a	n/a
43.624367992219	3.00654670858057	decision	2.0662112014833838	left	A
47.1743709053262	1.0166244196007	loss	n/a	n/a	n/a
52.1078575294814	3.08912000246346	decision	3.082760152989067	right	A
55.7409112987225	1.01667875662679	win	n/a	n/a	n/a
61.2076118958648	3.00648512656335	decision	2.3161676563322544	left	A
64.7575945834396	1.01672615064308	loss	n/a	n/a	n/a
67.6577095063403	3.00714381231228	decision	2.0658519731950946	left	A
71.207540955802	1.01658910053084	win	n/a	n/a	n/a
74.0909016538644	3.00743843993405	decision	2.5661527891643345	left	A
77.6408100808621	1.00002384791151	win	n/a	n/a	n/a
80.4908754513599	3.00637162255589	decision	2.8174417091649957	left	A
84.0411325410823	1.01647529460024	loss	n/a	n/a	n/a
89.0241902497364	3.00659048010129	decision	2.566115055058617	right	A
92.5741771635367	1.0164976331871	loss	n/a	n/a	n/a
95.4408086922485	3.00647124048555	decision	2.316223502799403	right	A
98.9909003558569	1.01649582193932	win	n/a	n/a	n/a
106.290826366923	3.00700978096575	decision	2.3154811983113177	right	A
109.840891465719	1.01645446539624	win	n/a	n/a	n/a
112.724180921854	3.00633539783303	decision	2.567017351917457	left	A
116.273917583399	1.01681731612189	win	n/a	n/a	n/a
123.324095733464	3.00657659396529	decision	2.5660924146068282	right	A
126.874143021763	1.01652359421132	win	n/a	n/a	n/a
131.874250488356	3.08888091950212	decision	3.08249359956244	left	A
135.507372782682	1.01647952076746	win	n/a	n/a	n/a
140.457367303665	3.00647516478784	decision	2.3161736938054673	left	A
144.007279051235	1.01662170275813	win	n/a	n/a	n/a
149.007331275207	3.33908340038033	decision	3.332721437793225	right	A
152.890514472267	1.00011863588588	win	n/a	n/a	n/a
166.24051841168	3.00748251326149	decision	2.3165166209219024	left	A
169.790509551705	1.01674637611723	loss	n/a	n/a	n/a
176.873887939495	3.0064766741707	decision	2.8161255451850593	right	A
180.423814780719	1.01652540545911	win	n/a	n/a	n/a
187.507153623214	3.00644860003376	decision	2.566082452889532	left	A
191.057463842502	1.01629900105763	loss	n/a	n/a	n/a
196.023832228966	3.00658836698858	decision	2.316282669780776	right	A
199.57372948667	1.0166887184605	loss	n/a	n/a	n/a
202.440533082699	3.00732372835046	decision	2.0660856224712916	left	A
205.990469885699	1.01656766753877	loss	n/a	n/a	n/a
208.873865600966	3.00702638394432	decision	1.7997510759159923	left	A
212.423492380942	1.00023847923148	win	n/a	n/a	n/a
219.457095920283	3.00667440064717	decision	2.3161646376829594	right	A
223.006919219275	1.00001298048301	loss	n/a	n/a	n/a
230.073809030058	3.0066846642876	decision	2.5826126882457174	right	A
233.623435508111	1.00009931606473	win	n/a	n/a	n/a
238.590401904017	3.00715739658335	decision	2.3163216112880036	left	A
242.14006249368	1.00030760804657	loss	n/a	n/a	n/a
245.023543638876	3.00641811086098	decision	2.8324843169539236	left	A
248.573683300172	1.01638141227886	win	n/a	n/a	n/a
253.573611756379	3.0070221577771	decision	1.7995708580710925	left	A
257.123481845541	1.01671981136315	loss	n/a	n/a	n/a
259.940377769293	3.00649629585678	decision	2.828377643658314	right	A
263.490160013549	1.01660509977955	loss	n/a	n/a	n/a
266.556956847664	3.0076488450286	decision	2.565883216971997	left	A
270.106851086603	1.00004226219608	loss	n/a	n/a	n/a
272.923639543762	3.06723696412519	decision-missed	n/a	n/a	A
276.540367143403	1.00006067636423	win	n/a	n/a	n/a
283.606863010617	3.00731648341753	decision	2.315998909587506	right	A
287.156693554483	0.999999396270141	loss	n/a	n/a	n/a
290.023479340016	3.00708645657869	decision	1.7997601321549155	right	A
293.57333795802	1.01676177163608	loss	n/a	n/a	n/a
298.54017666186	3.00724826019723	decision	2.5661401104880497	right	A
302.090140633343	1.01669445406878	win	n/a	n/a	n/a
309.123454978922	3.08906113734702	decision	3.0826644593616948	left	A
312.756624063419	1.00013312575174	loss	n/a	n/a	n/a
319.84009120171	3.33906891057268	decision	3.332672232645564	left	A
323.723193798854	1.01684871083125	win	n/a	n/a	n/a
326.673535171314	3.00721052620793	decision	2.3158980842563324	left	A
330.223154404492	1.01657008257462	loss	n/a	n/a	n/a
333.056662371033	3.0065044464427	decision	2.5661265262169763	left	A
336.606786636868	1.01637537480565	loss	n/a	n/a	n/a
343.673327784927	3.00713566178456	decision	2.065829030936584	right	A
347.22323591006	1.00001660297858	loss	n/a	n/a	n/a
350.073392747901	3.0072488639853	decision	2.5668932823464274	left	A
353.623179218383	1.01668539788807	loss	n/a	n/a	n/a
358.606596759055	3.00690774805844	decision	2.065940119966399	right	A
362.156496733602	1.00059468881227	win	n/a	n/a	n/a
371.339893928089	3.09020885650534	decision	3.0837548227864318	left	A
374.973212741315	1.01673701807158	loss	n/a	n/a	n/a
377.806462305074	3.00796218862524	decision	2.5659568738774396	left	A
381.356466123718	1.01653838600032	win	n/a	n/a	n/a
384.173195715703	3.00720992247807	decision	2.0659298563259654	right	A
387.723015090334	1.01659181737341	loss	n/a	n/a	n/a
390.539792680065	3.00734063319396	decision	2.3163593453355134	left	A
394.089813101687	1.01672373566544	loss	n/a	n/a	n/a
399.056443211623	3.00716916966485	decision	2.06582359719323	right	A
402.606290962256	1.01654412149219	loss	n/a	n/a	n/a
409.723306397267	3.06639141932828	decision-missed	n/a	n/a	A
413.339621940977	1.0166075147572	loss	n/a	n/a	n/a
420.406378927873	3.00661221490009	decision	2.5662394265527837	right	A
423.956207962416	1.01660298666684	loss	n/a	n/a	n/a
431.039791321615	3.00668677740032	decision	1.7992104223230854	right	A
434.589695824252	1.01648103020852	win	n/a	n/a	n/a
439.589668353845	3.00731678528246	decision	2.065937403123826	left	A
443.139727717091	1.01634639501572	win	n/a	n/a	n/a
446.006299173168	3.00738078227732	decision	2.5659882686450146	left	A
449.556060890143	1.00011139089474	loss	n/a	n/a	n/a
454.522895065835	3.00646248616977	decision	2.3151216682163067	right	A
458.073412067723	1.01601584471064	win	n/a	n/a	n/a
463.05622586346	3.00659772497602	decision	2.316215955943335	left	A
466.606013843266	1.0000673175673	win	n/a	n/a	n/a
469.472876908199	3.00695634953445	decision	2.065826314035803	left	A
473.022582778765	1.00008693925338	win	n/a	n/a	n/a
475.856365751126	3.00634958583396	decision	2.828911354241427	right	A
479.40597441874	1.0166678892565	win	n/a	n/a	n/a
482.256167481304	3.00638913112925	decision	2.8143810240435414	right	A
485.806166168128	1.01645295607159	win	n/a	n/a	n/a
492.872914400767	3.00735904742032	decision	2.5659490252146497	right	A
496.422826752067	1.01637175236829	win	n/a	n/a	n/a
503.472665899317	3.00705264689168	decision	2.3170403697295114	left	A
507.022553195246	1.00014489877503	loss	n/a	n/a	n/a
