onset	duration	trial_type	rt	resp
0.000451602041721344	0.6064801272004843	fixation_1	999	999
0.607022593030706	3.0064102738397196	face	1.5498961405828595	3
3.6134953546570614	0.6064801272004843	fixation_2	999	999
4.159385338192806	1.0009509000228718	feedback win	999	999
5.160349218756892	5.317196710500866	ITI	999	999
10.486976140877232	0.5945582556305453	fixation_1	999	999
11.081618920899928	3.005862072459422	face	1.8009102075593546	2
14.087528387317434	0.5945582556305453	fixation_2	999	999
14.634791893302463	1.0007794360863045	feedback loss	999	999
15.635584309929982	1.1169060671236366	ITI	999	999
16.757556410273537	0.5796342566609383	fixation_1	999	999
17.337279115687124	3.0052356858504936	face	1.5500081354985014	2
20.3425609881524	0.5796342566609383	fixation_2	999	999
20.889956110622734	1.0005678231827915	feedback win	999	999
21.89053631061688	1.1189560868078843	ITI	999	999
23.014634502702393	0.5941540476633236	fixation_1	999	999
23.60888394212816	3.0056477426551282	face	1.550620635971427	2
26.614580890047364	0.5941540476633236	fixation_2	999	999
27.161624330445193	1.0004624695284292	feedback win	999	999
28.162089516757987	3.216427870094776	ITI	999	999
31.383717451710254	0.5986323340330273	fixation_1	999	999
31.982473553624004	3.0060377625050023	face	2.051120990421623	2
34.988559313933365	0.5986323340330273	fixation_2	999	999
35.53497817914467	1.0010616873623803	feedback loss	999	999
36.53605194145348	5.316428141668439	ITI	999	999
41.8576306408504	0.6002470528474078	fixation_1	999	999
42.4579773118021	3.0055260877124965	face	1.8005195838632062	3
45.463553510489874	0.6002470528474078	fixation_2	999	999
46.010457183700055	1.0008594325045124	feedback loss	999	999
47.01132929488085	3.2167321579763666	ITI	999	999
50.23307526204735	0.5814617960713804	fixation_1	999	999
50.81462882750202	3.005950521212071	face	1.5506541437935084	3
53.820633082068525	0.5814617960713804	fixation_2	999	999
54.36750928487163	1.0012986577348784	feedback win	999	999
55.36881096137222	3.2166624253150076	ITI	999	999
58.59068733768072	0.5974257475463673	fixation_1	999	999
59.188215722097084	3.0052444401662797	face	2.0506868970114738	2
62.19350936752744	0.5974257475463673	fixation_2	999	999
62.74127639760263	1.0003525877837092	feedback loss	999	999
63.7416413621977	1.1177929700352252	ITI	999	999
64.86474729760084	0.611823279876262	fixation_1	999	999
65.47671487275511	3.00669886439573	face	1.8009059813339263	3
68.48346596129704	0.611823279876262	fixation_2	999	999
69.02934205869678	1.0014103507855907	feedback win	999	999
70.03076478629373	1.1177356141852215	ITI	999	999
71.1539470955031	0.5942476282361895	fixation_1	999	999
71.74830309615936	3.0061325506540015	face	1.8009838645812124	2
74.75448787084315	0.5942476282361895	fixation_2	999	999
75.30139637412503	1.0006284995470196	feedback win	999	999
76.30203755234834	1.11820170620922	ITI	999	999
77.42551630095113	0.5947185502154753	fixation_1	999	999
78.0203365823254	3.0060564787127078	face	1.801090425811708	3
81.02644166257232	0.5947185502154753	fixation_2	999	999
81.57322579412721	1.0006131040863693	feedback loss	999	999
82.57385157688987	3.21677079773508	ITI	999	999
85.79614725487772	0.5975093663437292	fixation_1	999	999
86.39376378618181	3.0054820142686367	face	1.8005884109297767	2
89.39931009931024	0.5975093663437292	fixation_2	999	999
89.94680936809164	1.0007782286265865	feedback loss	999	999
90.94759061548393	1.1178198367124423	ITI	999	999
92.07072402129415	0.5947725854348391	fixation_1	999	999
92.66559018741827	3.006801501265727	face	1.8007794965524226	3
95.67246232694015	0.5947725854348391	fixation_2	999	999
96.21848936087918	1.0007184578571469	feedback win	999	999
97.21922019554768	5.316141966031864	ITI	999	999
102.54110469226725	0.6001649433746934	fixation_1	999	999
103.14137921563815	3.0054198283469304	face	1.8004673598334193	3
106.1468455324648	0.6001649433746934	fixation_2	999	999
106.69392791448627	1.0007534751202911	feedback win	999	999
107.69469346455298	1.1166521918494254	ITI	999	999
108.81680050201248	0.5956718652741984	fixation_1	999	999
109.41259311651811	3.0057567186886445	face	1.8011755539337173	3
112.41840236110147	0.5956718652741984	fixation_2	999	999
112.96549168624915	1.0009850116912276	feedback win	999	999
113.96648907475173	5.317214219016023	ITI	999	999
119.28908599179704	0.5987500646151602	fixation_1	999	999
119.88793658011127	3.005477486178279	face	1.8013817332684994	2
122.89346146036405	0.5987500646151602	fixation_2	999	999
123.44048135459889	1.0011625130428001	feedback win	999	999
124.44165564072318	3.217672190628946	ITI	999	999
127.66484546661377	0.5968277370557189	fixation_1	999	999
128.26181266910862	3.005488655413501	face	1.550474529271014	3
131.2673475111369	0.5968277370557189	fixation_2	999	999
131.81451170076616	1.0005910673644394	feedback win	999	999
132.81511544680689	3.2167101212544367	ITI	999	999
136.03742863342632	0.5810916996560991	fixation_1	999	999
136.6186652322067	3.0055831416975707	face	1.7996006823377684	2
139.6242981828982	0.5810916996560991	fixation_2	999	999
140.17178296169732	1.0003969630924985	feedback win	999	999
141.1721926034661	3.2160816215910017	ITI	999	999
144.39380936895031	0.5983307629358023	fixation_1	999	999
144.99228986084927	3.0059610868338495	face	2.050709235598333	3
147.99829954921734	0.5983307629358023	fixation_2	999	999
148.54468822700437	1.0011573812225834	feedback win	999	999
149.54585738130845	11.617449891287833	ITI	999	999
161.16889403678942	0.5876954741543159	fixation_1	999	999
161.75672293885145	3.0054488081950694	face	1.549497970030643	3
164.76221823552623	0.5876954741543159	fixation_2	999	999
165.30914817168377	1.000459450762719	feedback loss	999	999
166.30962030112278	5.31591857993044	ITI	999	999
171.63126360124443	0.5996580986538902	fixation_1	999	999
172.2310696176719	3.006142814294435	face	1.8006780671421438	3
175.2372586185811	0.5996580986538902	fixation_2	999	999
175.78403731633443	1.00010988174472	feedback win	999	999
176.7841505187098	5.317495262832381	ITI	999	999
182.10743238567375	0.5989251509308815	fixation_1	999	999
182.7064758708002	3.0063680115854368	face	1.8006973870797083	3
185.71289006900042	0.5989251509308815	fixation_2	999	999
186.25940915592946	1.0007504563545808	feedback loss	999	999
187.26017168723047	3.2167209887411445	ITI	999	999
190.48263067856897	0.5973397137131542	fixation_1	999	999
191.08008933020756	3.005077202571556	face	1.3001013387693092	3
194.08521513431333	0.5973397137131542	fixation_2	999	999
194.6328475290211	1.0007109110010788	feedback loss	999	999
195.63356145878788	1.1176224118098617	ITI	999	999
196.7569149300689	0.5958469515899196	fixation_1	999	999
197.35291825188324	3.0054581662407145	face	1.7990141430636868	2
200.35842501965817	0.5958469515899196	fixation_2	999	999
200.90477535966784	1.0008023785194382	feedback loss	999	999
201.90558951126877	1.1175677727442235	ITI	999	999
203.0288702311227	0.5948522799881175	fixation_1	999	999
203.6238477883162	3.0062487717950717	face	2.067234067246318	3
206.63014395418577	0.5948522799881175	fixation_2	999	999
207.17655980063137	1.0007021565688774	feedback win	999	999
208.17727403214667	5.3174403220182285	ITI	999	999
213.50054623920005	0.5984871331602335	fixation_1	999	999
214.0992715501925	3.0067426359746605	face	1.7998651231173426	2
217.10606127837673	0.5984871331602335	fixation_2	999	999
217.65212574461475	1.000598916085437	feedback loss	999	999
218.65273703751154	5.317378437961452	ITI	999	999
223.97650099569	0.5981439035385847	fixation_1	999	999
224.57476896897424	3.0053377189906314	face	1.5503260077675804	3
227.58015166700352	0.5981439035385847	fixation_2	999	999
228.12724069028627	1.0007407964440063	feedback win	999	999
229.12799416540656	3.2165658259764314	ITI	999	999
232.35078702832107	0.5968609430128708	fixation_1	999	999
232.9478025303688	3.005484127323143	face	1.8004806422395632	2
235.95334008929785	0.5968609430128708	fixation_2	999	999
236.5006355936639	1.000916788354516	feedback loss	999	999
237.50156445696484	1.1175357742467895	ITI	999	999
238.62508214719128	0.5945733492262661	fixation_1	999	999
239.21978499996476	3.0052860986907035	face	1.5493256006157026	3
242.22511849272996	0.5945733492262661	fixation_2	999	999
242.77242154395208	1.0006357445381582	feedback win	999	999
243.77306906157173	3.21632493135985	ITI	999	999
246.99532670353074	0.5979313849238679	fixation_1	999	999
247.59343951416668	3.0056145364651456	face	1.7996350958710536	2
250.5991120103281	0.5979313849238679	fixation_2	999	999
251.14622971147764	1.0005322021897882	feedback loss	999	999
252.1467742904788	1.1183438883163035	ITI	999	999
253.2713337445166	0.6268517269054428	fixation_1	999	999
253.8983430491062	3.0057057021185756	face	1.5506897647865117	2
256.9041015791008	0.6268517269054428	fixation_2	999	999
257.451171282446	1.0006891761440784	feedback loss	999	999
258.45187283540145	1.1171756396070123	ITI	999	999
259.5752042699605	0.5950780808925629	fixation_1	999	999
260.17040732630994	3.005523370928131	face	2.067482206854038	3
263.1759802043671	0.5950780808925629	fixation_2	999	999
263.72287874575704	1.0011015346972272	feedback loss	999	999
264.7239926572656	1.1180568070849404	ITI	999	999
265.84823635208886	0.5937510471558198	fixation_1	999	999
266.44210362026934	3.0059052403084934	face	1.5509475644212216	2
269.4480589714367	0.5937510471558198	fixation_2	999	999
269.9949394004652	1.0010770830558613	feedback win	999	999
270.9960195021704	5.31600038765464	ITI	999	999
276.31814368616324	0.5993178876815364	fixation_1	999	999
276.9176330376649	3.0063492954941466	face	1.8003653268096969	2
279.9240318404045	0.5993178876815364	fixation_2	999	999
280.47022007452324	1.0007640406256542	feedback loss	999	999
281.4709958882304	1.1180033754790202	ITI	999	999
282.59506479860283	0.5942044603871182	fixation_1	999	999
283.1894078187179	3.0055701611563563	face	1.550636031315662	3
286.1950277888682	0.5942044603871182	fixation_2	999	999
286.74210986914113	1.0006749880267307	feedback loss	999	999
287.7427972339792	3.216557373525575	ITI	999	999
290.9656000586692	0.5970825179247186	fixation_1	999	999
291.5628154006554	3.00514059595298	face	1.8002216352615505	2
294.56800339068286	0.5970825179247186	fixation_2	999	999
295.11560831486713	1.0008757336763665	feedback win	999	999
296.1164970290847	5.316484591923654	ITI	999	999
301.43912986910436	0.598758818814531	fixation_1	999	999
302.0381425631931	3.0068060293560848	face	1.54982037039008	2
305.04499538289383	0.598758818814531	fixation_2	999	999
305.591099092504	1.0007042698562145	feedback loss	999	999
306.5918160410365	5.3168869885848835	ITI	999	999
311.9150320996996	0.6147967291763052	fixation_1	999	999
312.5300015002722	3.005665854900144	face	1.8009168488206342	2
315.53571867360733	0.6147967291763052	fixation_2	999	999
316.0828550909646	1.0008111328352243	feedback win	999	999
317.08367860061117	1.1178702495526522	ITI	999	999
318.2077909806976	0.5938171573216096	fixation_1	999	999
318.80174579215236	3.006051044911146	face	1.5508959440048784	3
321.8078490610933	0.5938171573216096	fixation_2	999	999
322.35489582212176	1.001384993433021	feedback loss	999	999
323.3562838343205	1.1177977999905124	ITI	999	999
324.4804677582579	0.5930663991020992	fixation_1	999	999
325.07370079134125	3.005036147776991	face	1.3000808113720268	2
328.0787888612831	0.5930663991020992	fixation_2	999	999
328.6264571788488	1.0009509000228718	feedback loss	999	999
329.627420455683	5.317475641146302	ITI	999	999
334.95141202618834	0.5974160876357928	fixation_1	999	999
335.54897452215664	3.006133758230135	face	1.5509448475204408	2
338.55515446688514	0.5974160876357928	fixation_2	999	999
339.1016509133624	1.000927655841224	feedback loss	999	999
340.10259094601497	1.1182928717462346	ITI	999	999
341.227272054879	0.5934099305886775	fixation_1	999	999
341.82081692270003	3.004225618788041	face	1.5502686519175768	3
344.8250914448872	0.5934099305886775	fixation_2	999	999
345.3735283311689	1.0007933223387226	feedback loss	999	999
346.37433433218393	3.2165483173448592	ITI	999	999
349.5971908903448	0.5969822959741578	fixation_1	999	999
350.1943455558503	3.0053627743618563	face	1.034392696339637	2
353.19975451682694	0.5969822959741578	fixation_2	999	999
353.74738751526456	1.0006671394221485	feedback win	999	999
354.748067333363	7.416767718619667	ITI	999	999
362.17141497845296	0.5999590660212561	fixation_1	999	999
362.7715615077177	3.0053217196837068	face	1.551013070740737	3
365.77693182893563	0.5999590660212561	fixation_2	999	999
366.3243975896621	1.0006191416177899	feedback loss	999	999
367.32502910809126	1.1188350357115269	ITI	999	999
368.45054851833265	0.5925432532094419	fixation_1	999	999
369.0432408967754	3.0055523506598547	face	1.5495767588727176	3
372.04884366027545	0.5925432532094419	fixation_2	999	999
372.59613946650643	1.0007912092842162	feedback win	999	999
373.59694365633186	1.1178630045615137	ITI	999	999
374.7217246851651	0.5766442043241113	fixation_1	999	999
375.2985131847672	3.006301297689788	face	1.5503501576604322	3
378.30486157455016	0.5766442043241113	fixation_2	999	999
378.85113523877226	1.0008334714220837	feedback loss	999	999
379.85198048327584	1.1175931300967932	ITI	999	999
380.97628032648936	0.5936236567795277	fixation_1	999	999
381.5700926538557	3.005494994809851	face	1.5497005268698558	2
384.5756377596408	0.5936236567795277	fixation_2	999	999
385.1235804797616	1.0003860956057906	feedback loss	999	999
386.12397925404366	3.216145014972426	ITI	999	999
389.3467609476065	0.596975352964364	fixation_1	999	999
389.943889652146	3.0058294701157138	face	1.8008972270181403	3
392.9497680256609	0.596975352964364	fixation_2	999	999
393.4966994711431	1.0003254192415625	feedback loss	999	999
394.49703696521465	5.31656911643222	ITI	999	999
399.8205793487141	0.6149745323928073	fixation_1	999	999
400.43571327009704	3.0055837454274297	face	1.5516026288969442	3
403.44134622090496	0.6149745323928073	fixation_2	999	999
403.9887156841578	1.0007709837518632	feedback loss	999	999
404.9894987428561	5.31626422458794	ITI	999	999
410.31280536344275	0.598322008503601	fixation_1	999	999
410.9113244951004	3.0058533180272207	face	1.3003902313066646	3
413.9172227922827	0.598322008503601	fixation_2	999	999
414.4637276912108	1.0012687722919509	feedback loss	999	999
415.4650085384492	5.31508903298527	ITI	999	999
420.78680096392054	0.5995249726111069	fixation_1	999	999
421.38650887156837	3.006433819886297	face	1.3009927698876709	2
424.3929915949702	0.5995249726111069	fixation_2	999	999
424.93921635567676	1.0007640406256542	feedback win	999	999
425.9399930749787	3.216424247599207	ITI	999	999
429.1631433555158	0.5969551275484264	fixation_1	999	999
429.760287153651	3.00538571679499	face	1.550401174230501	3
432.7657214719802	0.5969551275484264	fixation_2	999	999
433.3133460180834	1.0001705582253635	feedback win	999	999
434.3135289531201	1.1185159558663145	ITI	999	999
435.43900519551244	0.5926175138447434	fixation_1	999	999
436.0317787777167	3.006095420336351	face	1.2992041722172871	2
439.0379300445784	0.5926175138447434	fixation_2	999	999
439.5840998644708	1.0011021384270862	feedback loss	999	999
440.5852143797092	3.217470841249451	ITI	999	999
443.80963826249354	0.5956579791381955	fixation_1	999	999
444.40546136617195	3.0055849528871477	face	1.5511993264080957	2
447.4110940149985	0.5956579791381955	fixation_2	999	999
447.9584381210152	1.0006816292880103	feedback win	999	999
448.95913303270936	3.2165443929843605	ITI	999	999
452.1825613382971	0.5958910250337794	fixation_1	999	999
452.7786066205008	3.0060383662348613	face	1.3000497184693813	2
455.7846905696206	0.5958910250337794	fixation_2	999	999
456.3315918277949	1.000925542670302	feedback win	999	999
457.33252974727657	1.1170225901296362	ITI	999	999
458.4565132276621	0.6106139764888212	fixation_1	999	999
459.06728659314103	3.006346578593366	face	1.8014587108045816	3
462.073678452638	0.6106139764888212	fixation_2	999	999
462.6202189726755	1.000559370731935	feedback win	999	999
463.6207907202188	1.1178291947580874	ITI	999	999
464.7454144731164	0.5936891632154584	fixation_1	999	999
465.3392539691413	3.005367302452214	face	1.3003337809350342	2
468.3446695712628	0.5936891632154584	fixation_2	999	999
468.8919539063936	1.001095195300877	feedback win	999	999
469.8930620822357	1.118563651922159	ITI	999	999
471.0185371172847	0.5923086977563798	fixation_1	999	999
471.6110311651137	3.0062493754085153	face	1.800403966451995	3
474.6173813662026	0.5923086977563798	fixation_2	999	999
475.1637724589091	1.001122363959439	feedback win	999	999
476.1649075015448	5.315721758874133	ITI	999	999
481.4875813962426	0.598389326245524	fixation_1	999	999
482.08619290112983	3.005317795323208	face	1.8004030608572066	2
485.09155899612233	0.598389326245524	fixation_2	999	999
485.6390480011469	1.0009484849870205	feedback win	999	999
486.6399992030347	5.316949778352864	ITI	999	999
491.9639581713127	0.5975510247517377	fixation_1	999	999
492.5616749244509	3.0060021413955837	face	1.5499145548092201	2
495.5677256673807	0.5975510247517377	fixation_2	999	999
496.1143063365016	1.000786681077443	feedback loss	999	999
497.11510569625534	5.316530174808577	ITI	999	999
