onset	duration	trial_type	rt	resp	gender
0.607022593030706	3.0064102738397196	decision	1.5498961405828595	right	M
4.159385338192806	1.0009509000228718	win	n/a	n/a	n/a
11.081618920899928	3.005862072459422	decision	1.8009102075593546	left	M
14.634791893302463	1.0007794360863045	loss	n/a	n/a	n/a
17.337279115687124	3.0052356858504936	decision	1.5500081354985014	left	M
20.889956110622734	1.0005678231827915	win	n/a	n/a	n/a
23.60888394212816	3.0056477426551282	decision	1.550620635971427	left	F
27.161624330445193	1.0004624695284292	win	n/a	n/a	n/a
31.982473553624004	3.0060377625050023	decision	2.051120990421623	left	F
35.53497817914467	1.0010616873623803	loss	n/a	n/a	n/a
42.4579773118021	3.0055260877124965	decision	1.8005195838632062	right	M
46.010457183700055	1.0008594325045124	loss	n/a	n/a	n/a
50.81462882750202	3.005950521212071	decision	1.5506541437935084	right	M
54.36750928487163	1.0012986577348784	win	n/a	n/a	n/a
59.188215722097084	3.0052444401662797	decision	2.0506868970114738	left	F
62.74127639760263	1.0003525877837092	loss	n/a	n/a	n/a
65.47671487275511	3.00669886439573	decision	1.8009059813339263	right	F
69.02934205869678	1.0014103507855907	win	n/a	n/a	n/a
71.74830309615936	3.0061325506540015	decision	1.8009838645812124	left	F
75.30139637412503	1.0006284995470196	win	n/a	n/a	n/a
78.0203365823254	3.0060564787127078	decision	1.801090425811708	right	F
81.57322579412721	1.0006131040863693	loss	n/a	n/a	n/a
86.39376378618181	3.0054820142686367	decision	1.8005884109297767	left	M
89.94680936809164	1.0007782286265865	loss	n/a	n/a	n/a
92.66559018741827	3.006801501265727	decision	1.8007794965524226	right	M
96.21848936087918	1.0007184578571469	win	n/a	n/a	n/a
103.14137921563815	3.0054198283469304	decision	1.8004673598334193	right	M
106.69392791448627	1.0007534751202911	win	n/a	n/a	n/a
109.41259311651811	3.0057567186886445	decision	1.8011755539337173	right	F
112.96549168624915	1.0009850116912276	win	n/a	n/a	n/a
119.88793658011127	3.005477486178279	decision	1.8013817332684994	left	M
123.44048135459889	1.0011625130428001	win	n/a	n/a	n/a
128.26181266910862	3.005488655413501	decision	1.550474529271014	right	F
131.81451170076616	1.0005910673644394	win	n/a	n/a	n/a
136.6186652322067	3.0055831416975707	decision	1.7996006823377684	left	M
140.17178296169732	1.0003969630924985	win	n/a	n/a	n/a
144.99228986084927	3.0059610868338495	decision	2.050709235598333	right	F
148.54468822700437	1.0011573812225834	win	n/a	n/a	n/a
161.75672293885145	3.0054488081950694	decision	1.549497970030643	right	M
165.30914817168377	1.000459450762719	loss	n/a	n/a	n/a
172.2310696176719	3.006142814294435	decision	1.8006780671421438	right	M
175.78403731633443	1.00010988174472	win	n/a	n/a	n/a
182.7064758708002	3.0063680115854368	decision	1.8006973870797083	right	M
186.25940915592946	1.0007504563545808	loss	n/a	n/a	n/a
191.08008933020756	3.005077202571556	decision	1.3001013387693092	right	M
194.6328475290211	1.0007109110010788	loss	n/a	n/a	n/a
197.35291825188324	3.0054581662407145	decision	1.7990141430636868	left	F
200.90477535966784	1.0008023785194382	loss	n/a	n/a	n/a
203.6238477883162	3.0062487717950717	decision	2.067234067246318	right	F
207.17655980063137	1.0007021565688774	win	n/a	n/a	n/a
214.0992715501925	3.0067426359746605	decision	1.7998651231173426	left	M
217.65212574461475	1.000598916085437	loss	n/a	n/a	n/a
224.57476896897424	3.0053377189906314	decision	1.5503260077675804	right	M
228.12724069028627	1.0007407964440063	win	n/a	n/a	n/a
232.9478025303688	3.005484127323143	decision	1.8004806422395632	left	F
236.5006355936639	1.000916788354516	loss	n/a	n/a	n/a
239.21978499996476	3.0052860986907035	decision	1.5493256006157026	right	F
242.77242154395208	1.0006357445381582	win	n/a	n/a	n/a
247.59343951416668	3.0056145364651456	decision	1.7996350958710536	left	F
251.14622971147764	1.0005322021897882	loss	n/a	n/a	n/a
253.8983430491062	3.0057057021185756	decision	1.5506897647865117	left	M
257.451171282446	1.0006891761440784	loss	n/a	n/a	n/a
260.17040732630994	3.005523370928131	decision	2.067482206854038	right	M
263.72287874575704	1.0011015346972272	loss	n/a	n/a	n/a
266.44210362026934	3.0059052403084934	decision	1.5509475644212216	left	M
269.9949394004652	1.0010770830558613	win	n/a	n/a	n/a
276.9176330376649	3.0063492954941466	decision	1.8003653268096969	left	F
280.47022007452324	1.0007640406256542	loss	n/a	n/a	n/a
283.1894078187179	3.0055701611563563	decision	1.550636031315662	right	F
286.74210986914113	1.0006749880267307	loss	n/a	n/a	n/a
291.5628154006554	3.00514059595298	decision	1.8002216352615505	left	F
295.11560831486713	1.0008757336763665	win	n/a	n/a	n/a
302.0381425631931	3.0068060293560848	decision	1.54982037039008	left	M
305.591099092504	1.0007042698562145	loss	n/a	n/a	n/a
312.5300015002722	3.005665854900144	decision	1.8009168488206342	left	F
316.0828550909646	1.0008111328352243	win	n/a	n/a	n/a
318.80174579215236	3.006051044911146	decision	1.5508959440048784	right	F
322.35489582212176	1.001384993433021	loss	n/a	n/a	n/a
325.07370079134125	3.005036147776991	decision	1.3000808113720268	left	M
328.6264571788488	1.0009509000228718	loss	n/a	n/a	n/a
335.54897452215664	3.006133758230135	decision	1.5509448475204408	left	M
339.1016509133624	1.000927655841224	loss	n/a	n/a	n/a
341.82081692270003	3.004225618788041	decision	1.5502686519175768	right	F
345.3735283311689	1.0007933223387226	loss	n/a	n/a	n/a
350.1943455558503	3.0053627743618563	decision	1.034392696339637	left	F
353.74738751526456	1.0006671394221485	win	n/a	n/a	n/a
362.7715615077177	3.0053217196837068	decision	1.551013070740737	right	F
366.3243975896621	1.0006191416177899	loss	n/a	n/a	n/a
369.0432408967754	3.0055523506598547	decision	1.5495767588727176	right	M
372.59613946650643	1.0007912092842162	win	n/a	n/a	n/a
375.2985131847672	3.006301297689788	decision	1.5503501576604322	right	M
378.85113523877226	1.0008334714220837	loss	n/a	n/a	n/a
381.5700926538557	3.005494994809851	decision	1.5497005268698558	left	M
385.1235804797616	1.0003860956057906	loss	n/a	n/a	n/a
389.943889652146	3.0058294701157138	decision	1.8008972270181403	right	F
393.4966994711431	1.0003254192415625	loss	n/a	n/a	n/a
400.43571327009704	3.0055837454274297	decision	1.5516026288969442	right	F
403.9887156841578	1.0007709837518632	loss	n/a	n/a	n/a
410.9113244951004	3.0058533180272207	decision	1.3003902313066646	right	M
414.4637276912108	1.0012687722919509	loss	n/a	n/a	n/a
421.38650887156837	3.006433819886297	decision	1.3009927698876709	left	F
424.93921635567676	1.0007640406256542	win	n/a	n/a	n/a
429.760287153651	3.00538571679499	decision	1.550401174230501	right	F
433.3133460180834	1.0001705582253635	win	n/a	n/a	n/a
436.0317787777167	3.006095420336351	decision	1.2992041722172871	left	F
439.5840998644708	1.0011021384270862	loss	n/a	n/a	n/a
444.40546136617195	3.0055849528871477	decision	1.5511993264080957	left	M
447.9584381210152	1.0006816292880103	win	n/a	n/a	n/a
452.7786066205008	3.0060383662348613	decision	1.3000497184693813	left	F
456.3315918277949	1.000925542670302	win	n/a	n/a	n/a
459.06728659314103	3.006346578593366	decision	1.8014587108045816	right	F
462.6202189726755	1.000559370731935	win	n/a	n/a	n/a
465.3392539691413	3.005367302452214	decision	1.3003337809350342	left	F
468.8919539063936	1.001095195300877	win	n/a	n/a	n/a
471.6110311651137	3.0062493754085153	decision	1.800403966451995	right	M
475.1637724589091	1.001122363959439	win	n/a	n/a	n/a
482.08619290112983	3.005317795323208	decision	1.8004030608572066	left	M
485.6390480011469	1.0009484849870205	win	n/a	n/a	n/a
492.5616749244509	3.0060021413955837	decision	1.5499145548092201	left	M
496.1143063365016	1.000786681077443	loss	n/a	n/a	n/a
