onset	duration	trial_type	rt	resp	gender
0.6180620626546443	3.0067815673537552	decision	1.550852246582508	left	M
4.170903347665444	1.0011603981256485	win	n/a	n/a	n/a
11.093527670949697	3.0065491255372763	decision	1.049937270814553	left	M
14.64599101152271	1.0007818499580026	loss	n/a	n/a	n/a
17.348278541350737	3.005533324321732	decision	1.3011987963691354	left	M
20.90147150796838	1.0006795153021812	win	n/a	n/a	n/a
23.620296221459284	3.005485628498718	decision	1.3001150737982243	left	F
27.173316516913474	1.000558766303584	win	n/a	n/a	n/a
31.99389160843566	3.0055227586999536	decision	1.049521592212841	right	F
35.546770627610385	1.0006565728690475	loss	n/a	n/a	n/a
42.469084625830874	3.005280053243041	decision	1.5512920748442411	right	M
46.022347626741976	1.0002617235295475	loss	n/a	n/a	n/a
50.82627293630503	3.0050467057153583	decision	1.550079151056707	right	M
54.379121768055484	1.0007021557539701	win	n/a	n/a	n/a
59.19942607986741	3.0058901377487928	decision	1.2998956125229597	left	F
62.7524551297538	1.001049007056281	loss	n/a	n/a	n/a
65.48774729389697	3.0055242681410164	decision	1.3013213567901403	right	F
69.04107519774698	1.0007281166035682	win	n/a	n/a	n/a
71.76034275814891	3.006784284254536	decision	1.049703017808497	left	F
75.31272821570747	1.0008693928830326	win	n/a	n/a	n/a
78.03210233710706	3.005928777391091	decision	1.046197975287214	left	F
81.58437036629766	1.0008358850609511	loss	n/a	n/a	n/a
86.40514258039184	3.006115334806964	decision	1.3005524871405214	left	M
89.9582247599028	1.0008008677978069	loss	n/a	n/a	n/a
92.67696193023585	3.0056459228508174	decision	1.0512141918297857	left	M
96.22976216068491	1.0009548228699714	win	n/a	n/a	n/a
103.15241516171955	3.0059157968498766	decision	1.0457493925932795	right	M
106.705271842191	1.000646309228614	win	n/a	n/a	n/a
109.4242538313847	3.0055242681410164	decision	1.550557317212224	right	F
112.97702266694978	1.0006115939468145	win	n/a	n/a	n/a
119.89931734534912	3.0067782467231154	decision	1.0497510156128556	left	M
123.45234881015494	1.0008923353161663	win	n/a	n/a	n/a
128.28974967519753	3.005600943695754	decision	1.3002886504400522	left	F
131.8426667302847	1.0008778453338891	win	n/a	n/a	n/a
136.64645227277651	3.005568341584876	decision	1.3003393651451916	right	M
140.19923137198202	1.0010758738499135	win	n/a	n/a	n/a
145.03679796517827	3.0061895952094346	decision	1.3003737786784768	right	F
148.58947895583697	1.0010982125531882	win	n/a	n/a	n/a
161.8170778977219	3.005849384702742	decision	1.2999236865434796	left	M
165.3698926179204	1.0008902221452445	loss	n/a	n/a	n/a
172.2926201815717	3.006300986278802	decision	1.3002385396976024	right	M
175.8449857153464	1.00118786864914	win	n/a	n/a	n/a
182.76759071880952	3.0062511772848666	decision	1.0502599726896733	left	M
186.32045554975048	1.0007788313087076	loss	n/a	n/a	n/a
191.14129568543285	3.0055290979798883	decision	1.300534073030576	right	M
194.69365487992764	1.0013650679029524	loss	n/a	n/a	n/a
197.41329525317997	3.006514410022646	decision	1.3008507371414453	left	F
200.9661202370189	1.000477864407003	loss	n/a	n/a	n/a
203.68494917661883	3.0058348951861262	decision	1.299827691167593	left	F
207.23629226814955	1.0020916750654578	win	n/a	n/a	n/a
214.16023607645184	3.005254394141957	decision	1.2993359407410026	right	M
217.71324942889623	1.0009735389612615	loss	n/a	n/a	n/a
224.635589991929	3.0051324374508113	decision	1.0460108141414821	left	M
228.1881164237857	1.001044780947268	win	n/a	n/a	n/a
233.00967682735063	3.0059973024763167	decision	1.3000266251619905	left	F
236.56171754631214	1.0007401914335787	loss	n/a	n/a	n/a
239.29760621092282	3.0050602899864316	decision	1.0450623305514455	right	F
242.85014260467142	1.00077098258771	win	n/a	n/a	n/a
247.67087104730308	3.005762747488916	decision	1.30126792518422	left	F
251.22382191196084	1.0008084147702903	loss	n/a	n/a	n/a
253.9762242140714	3.005383595591411	decision	1.0493878626730293	left	M
257.52909146016464	1.0007226830348372	loss	n/a	n/a	n/a
260.24797564256005	3.0056302254088223	decision	1.0493766935542226	left	M
263.8008431904018	1.0010770813096315	loss	n/a	n/a	n/a
266.51972012780607	3.005824329564348	decision	1.0458656137343496	right	M
270.07285392750055	1.000860336702317	win	n/a	n/a	n/a
277.0118835158646	3.0066511584445834	decision	1.550666594877839	left	F
280.56460224068724	1.0008174709510058	loss	n/a	n/a	n/a
283.2837333546486	3.005796557292342	decision	1.050156430574134	right	F
286.83635970647447	1.0010665159206837	loss	n/a	n/a	n/a
291.6574262464419	3.005827348213643	decision	1.0503263846039772	left	F
295.21017123409547	1.00083377212286	win	n/a	n/a	n/a
302.13247315748595	3.006974464049563	decision	1.3007541380356997	right	M
305.6852166359313	1.000899882055819	loss	n/a	n/a	n/a
312.6245061364025	3.0069143914151937	decision	1.2999233847949654	left	F
316.17722425749525	1.000728418584913	win	n/a	n/a	n/a
318.9127364868764	3.0051916046068072	decision	1.3000377945136279	right	F
322.465367668774	1.0015576623845845	loss	n/a	n/a	n/a
325.1845709304325	3.0056263010483235	decision	1.550370458047837	right	M
328.7376235262491	1.0006182349752635	loss	n/a	n/a	n/a
335.6602484532632	3.006094807293266	decision	1.049099876312539	left	M
339.2131126804743	1.0004962785169482	loss	n/a	n/a	n/a
341.9315630721394	3.0057361826766282	decision	1.3017288844566792	right	F
345.4849758017808	1.0005322014912963	loss	n/a	n/a	n/a
350.30537641095	3.0059127782005817	decision	1.2998995368834585	left	F
353.85822433722205	1.0007658507674932	win	n/a	n/a	n/a
362.899026038358	3.005851497873664	decision	1.5501980886328965	right	F
366.45153043349274	1.0011290034744889	loss	n/a	n/a	n/a
369.17101322929375	3.0050035379827023	decision	1.5512350210919976	right	M
372.72411653981544	1.0003272297326475	win	n/a	n/a	n/a
375.4262546428945	3.0059577571228147	decision	1.0509470344986767	left	M
378.978825148195	1.0009125608485192	loss	n/a	n/a	n/a
381.6978349094279	3.0063215137925	decision	1.0458779903128743	left	M
385.25095633231103	1.0002976462710649	loss	n/a	n/a	n/a
390.0717056042049	3.005404726602137	decision	1.3000154558103532	right	F
393.6243636526633	1.0007821517065167	loss	n/a	n/a	n/a
400.563329545781	3.0067725114058703	decision	1.2997153946198523	left	F
404.1160645717755	1.0007006463129073	loss	n/a	n/a	n/a
411.0386650469154	3.006382491905242	decision	1.0503903815988451	left	M
414.5914248265326	1.0008389039430767	loss	n/a	n/a	n/a
421.51390696759336	3.00540291541256	decision	1.0501352993305773	right	F
425.06662810756825	1.0009312767069787	win	n/a	n/a	n/a
429.8872901382856	3.0057102215941995	decision	1.0507031215820462	left	F
433.440595401451	1.0007413988932967	win	n/a	n/a	n/a
436.1593051014934	3.0054663084447384	decision	1.0502155972644687	right	F
439.711941112997	1.0010541391093284	loss	n/a	n/a	n/a
444.53264842461795	3.0062765346374363	decision	1.0504410963039845	left	M
448.0857245665975	1.000624876236543	win	n/a	n/a	n/a
452.9063881067559	3.0055846425238997	decision	1.3015109326224774	right	F
456.45911800069734	1.0007567945867777	win	n/a	n/a	n/a
459.1951500547584	3.0057443333789706	decision	1.5507378370966762	left	F
462.74758773623034	1.0009113533888012	win	n/a	n/a	n/a
465.46716773486696	3.00567882694304	decision	1.5506892355624586	left	F
469.0194007467944	1.0011039478704333	win	n/a	n/a	n/a
471.73851586156525	3.005407443502918	decision	1.300515356939286	left	M
475.2915763061028	1.0008189803920686	win	n/a	n/a	n/a
482.21392683079466	3.0059061371721327	decision	1.2997969002462924	left	M
485.76649552513845	1.0008542991708964	win	n/a	n/a	n/a
492.6892384842504	3.0055499272421002	decision	1.55054373270832	right	M
496.2420332808979	1.0008488656021655	loss	n/a	n/a	n/a
