TrialNumber,Trial,ISI,ITI,winlose,door_image_L,door_image_R,ran,order,decision_onset,resp,rt,resp_onset,resp_offset,trialDuration,pre_feedback_fix_onset,pre_feedback_fix_duration,arrow_onset,arrow_offset,ITIonset,ITIoffset,Date_Time
1,1,0.6,5.3,loss,obj (1).bmp,obj (61).bmp,1.0,0.0,0.61609507,999.0,999.0,999.0,3.7187133,3.1030045,3.7192929,3.7356243,4.335891,5.3523746,5.3526163,10.669862,2019-11-26 17:55:03.106557
2,2,0.6,1.1,win,obj (2).bmp,obj (62).bmp,1.0,1.0,11.290876,999.0,999.0,999.0,14.393842,3.1032305,14.394274,14.410572,15.0107355,16.043531,16.043901,17.161736,2019-11-26 17:55:09.598288
3,3,0.6,1.1,loss,obj (3).bmp,obj (63).bmp,1.0,2.0,17.777952,999.0,999.0,999.0,20.881683,3.1040232,20.882153,20.898863,21.499023,22.515247,22.51541,23.633135,2019-11-26 17:55:16.069606
4,4,0.6,3.2,loss,obj (4).bmp,obj (64).bmp,1.0,3.0,24.250235,999.0,999.0,999.0,27.35279,3.102834,27.35324,27.369566,27.969732,28.98705,28.987215,32.20454,2019-11-26 17:55:24.640898
5,5,0.6,5.3,loss,obj (5).bmp,obj (65).bmp,1.0,4.0,32.823727,999.0,999.0,999.0,35.924934,3.1014817,35.925373,35.941727,36.54189,37.558903,37.55907,42.87638,2019-11-26 17:55:35.312597
6,6,0.6,3.2,win,obj (6).bmp,obj (66).bmp,1.0,5.0,43.49708,999.0,999.0,999.0,46.59987,3.1031168,46.60039,46.616848,47.21701,48.250015,48.250362,51.46816,2019-11-26 17:55:43.904257
7,7,0.6,3.2,win,obj (7).bmp,obj (67).bmp,1.0,6.0,52.086197,999.0,999.0,999.0,55.188564,3.1026373,55.189,55.205368,55.805534,56.8389,56.839256,60.056915,2019-11-26 17:55:52.492906
8,8,0.6,1.1,loss,obj (8).bmp,obj (68).bmp,1.0,7.0,60.676254,999.0,999.0,999.0,63.779205,3.1032243,63.77964,63.796207,64.39637,65.41272,65.41288,66.52915,2019-11-26 17:55:58.965054
9,9,0.6,1.1,win,obj (9).bmp,obj (69).bmp,1.0,8.0,67.14769,999.0,999.0,999.0,70.24981,3.102395,70.25025,70.26669,70.86686,71.900215,71.90058,73.01766,2019-11-26 17:56:05.453470
10,10,0.6,1.1,win,obj (10).bmp,obj (70).bmp,1.0,9.0,73.63472,999.0,999.0,999.0,76.737206,3.1027455,76.73763,76.7539,77.354065,78.38832,78.38867,79.50609,2019-11-26 17:56:11.941818
11,11,0.6,3.2,win,obj (11).bmp,obj (71).bmp,1.0,10.0,80.12298,999.0,999.0,999.0,83.226585,3.1038766,83.22702,83.24304,83.843216,84.87571,84.87608,88.09356,2019-11-26 17:56:20.529180
12,12,0.6,1.1,loss,obj (12).bmp,obj (72).bmp,1.0,11.0,88.713,999.0,999.0,999.0,91.81453,3.1018014,91.814964,91.83128,92.43145,93.448875,93.44906,94.56708,2019-11-26 17:56:27.002691
13,13,0.6,5.3,win,obj (13).bmp,obj (73).bmp,1.0,12.0,95.183624,999.0,999.0,999.0,98.286705,3.1033459,98.28713,98.303474,98.90368,99.93639,99.93672,105.25443,2019-11-26 17:56:37.689824
14,14,0.6,1.1,loss,obj (14).bmp,obj (74).bmp,1.0,13.0,105.87447,999.0,999.0,999.0,108.97743,3.103228,108.97787,108.99417,109.59433,110.61166,110.611824,111.72824,2019-11-26 17:56:44.163548
15,15,0.6,5.3,loss,obj (15).bmp,obj (75).bmp,1.0,14.0,112.34574,999.0,999.0,999.0,115.44829,3.1028345,115.448746,115.46475,116.06491,117.08219,117.08237,122.39945,2019-11-26 17:56:54.834647
16,16,0.6,3.2,win,obj (16).bmp,obj (76).bmp,1.0,15.0,123.02061,999.0,999.0,999.0,126.12301,3.1026773,126.12345,126.13932,126.73949,127.772575,127.77295,130.99022,2019-11-26 17:57:03.425274
17,17,0.6,3.2,loss,obj (17).bmp,obj (77).bmp,1.0,16.0,131.60994,999.0,999.0,999.0,134.7127,3.103036,134.71313,134.72896,135.32915,136.34557,136.34573,139.56303,2019-11-26 17:57:11.997976
18,18,0.6,3.2,win,obj (18).bmp,obj (78).bmp,1.0,17.0,140.18297,999.0,999.0,999.0,143.2852,3.10251,143.28563,143.30194,143.9021,144.93475,144.9351,148.15288,2019-11-26 17:57:20.587707
19,19,0.6,11.6,win,obj (19).bmp,obj (79).bmp,1.0,18.0,148.77222,999.0,999.0,999.0,151.87424,3.1022835,151.87466,151.89125,152.49141,153.52426,153.52461,165.14256,2019-11-26 17:57:37.577154
20,20,0.6,5.3,win,obj (20).bmp,obj (80).bmp,1.0,19.0,165.76636,--,--,--,--,--,--,--,--,--,--,--,--
21,21,0.6,5.3,win,obj (21).bmp,obj (81).bmp,0.0,--,--,--,--,--,--,--,--,--,--,--,--,--,--
22,22,0.6,3.2,loss,obj (22).bmp,obj (82).bmp,0.0,--,--,--,--,--,--,--,--,--,--,--,--,--,--
23,23,0.6,1.1,loss,obj (23).bmp,obj (83).bmp,0.0,--,--,--,--,--,--,--,--,--,--,--,--,--,--
24,24,0.6,1.1,win,obj (24).bmp,obj (84).bmp,0.0,--,--,--,--,--,--,--,--,--,--,--,--,--,--
25,25,0.6,5.3,loss,obj (25).bmp,obj (85).bmp,0.0,--,--,--,--,--,--,--,--,--,--,--,--,--,--
26,26,0.6,5.3,loss,obj (26).bmp,obj (86).bmp,0.0,--,--,--,--,--,--,--,--,--,--,--,--,--,--
27,27,0.6,3.2,loss,obj (27).bmp,obj (87).bmp,0.0,--,--,--,--,--,--,--,--,--,--,--,--,--,--
28,28,0.6,1.1,loss,obj (28).bmp,obj (88).bmp,0.0,--,--,--,--,--,--,--,--,--,--,--,--,--,--
29,29,0.6,3.2,win,obj (29).bmp,obj (89).bmp,0.0,--,--,--,--,--,--,--,--,--,--,--,--,--,--
30,30,0.6,1.1,win,obj (30).bmp,obj (90).bmp,0.0,--,--,--,--,--,--,--,--,--,--,--,--,--,--
31,31,0.6,1.1,loss,obj (31).bmp,obj (91).bmp,0.0,--,--,--,--,--,--,--,--,--,--,--,--,--,--
32,32,0.6,1.1,win,obj (32).bmp,obj (92).bmp,0.0,--,--,--,--,--,--,--,--,--,--,--,--,--,--
33,33,0.6,5.3,loss,obj (33).bmp,obj (93).bmp,0.0,--,--,--,--,--,--,--,--,--,--,--,--,--,--
34,34,0.6,1.1,loss,obj (34).bmp,obj (94).bmp,0.0,--,--,--,--,--,--,--,--,--,--,--,--,--,--
35,35,0.6,3.2,loss,obj (35).bmp,obj (95).bmp,0.0,--,--,--,--,--,--,--,--,--,--,--,--,--,--
36,36,0.6,5.3,win,obj (36).bmp,obj (96).bmp,0.0,--,--,--,--,--,--,--,--,--,--,--,--,--,--
37,37,0.6,5.3,win,obj (37).bmp,obj (97).bmp,0.0,--,--,--,--,--,--,--,--,--,--,--,--,--,--
38,38,0.6,1.1,loss,obj (38).bmp,obj (98).bmp,0.0,--,--,--,--,--,--,--,--,--,--,--,--,--,--
39,39,0.6,1.1,win,obj (39).bmp,obj (99).bmp,0.0,--,--,--,--,--,--,--,--,--,--,--,--,--,--
40,40,0.6,5.3,win,obj (40).bmp,obj (100).bmp,0.0,--,--,--,--,--,--,--,--,--,--,--,--,--,--
41,41,0.6,1.1,win,obj (41).bmp,obj (101).bmp,0.0,--,--,--,--,--,--,--,--,--,--,--,--,--,--
42,42,0.6,3.2,loss,obj (42).bmp,obj (102).bmp,0.0,--,--,--,--,--,--,--,--,--,--,--,--,--,--
43,43,0.6,7.4,win,obj (43).bmp,obj (103).bmp,0.0,--,--,--,--,--,--,--,--,--,--,--,--,--,--
44,44,0.6,1.1,loss,obj (44).bmp,obj (104).bmp,0.0,--,--,--,--,--,--,--,--,--,--,--,--,--,--
45,45,0.6,1.1,loss,obj (45).bmp,obj (105).bmp,0.0,--,--,--,--,--,--,--,--,--,--,--,--,--,--
46,46,0.6,1.1,win,obj (46).bmp,obj (106).bmp,0.0,--,--,--,--,--,--,--,--,--,--,--,--,--,--
47,47,0.6,3.2,loss,obj (47).bmp,obj (107).bmp,0.0,--,--,--,--,--,--,--,--,--,--,--,--,--,--
48,48,0.6,5.3,win,obj (48).bmp,obj (108).bmp,0.0,--,--,--,--,--,--,--,--,--,--,--,--,--,--
49,49,0.6,5.3,win,obj (49).bmp,obj (109).bmp,0.0,--,--,--,--,--,--,--,--,--,--,--,--,--,--
50,50,0.6,5.3,win,obj (50).bmp,obj (110).bmp,0.0,--,--,--,--,--,--,--,--,--,--,--,--,--,--
51,51,0.6,3.2,win,obj (51).bmp,obj (111).bmp,0.0,--,--,--,--,--,--,--,--,--,--,--,--,--,--
52,52,0.6,1.1,loss,obj (52).bmp,obj (112).bmp,0.0,--,--,--,--,--,--,--,--,--,--,--,--,--,--
53,53,0.6,3.2,loss,obj (53).bmp,obj (113).bmp,0.0,--,--,--,--,--,--,--,--,--,--,--,--,--,--
54,54,0.6,3.2,win,obj (54).bmp,obj (114).bmp,0.0,--,--,--,--,--,--,--,--,--,--,--,--,--,--
55,55,0.6,1.1,loss,obj (55).bmp,obj (115).bmp,0.0,--,--,--,--,--,--,--,--,--,--,--,--,--,--
56,56,0.6,1.1,loss,obj (56).bmp,obj (116).bmp,0.0,--,--,--,--,--,--,--,--,--,--,--,--,--,--
57,57,0.6,1.1,loss,obj (57).bmp,obj (117).bmp,0.0,--,--,--,--,--,--,--,--,--,--,--,--,--,--
58,58,0.6,5.3,loss,obj (58).bmp,obj (118).bmp,0.0,--,--,--,--,--,--,--,--,--,--,--,--,--,--
59,59,0.6,5.3,win,obj (59).bmp,obj (119).bmp,0.0,--,--,--,--,--,--,--,--,--,--,--,--,--,--
60,60,0.6,5.3,win,obj (60).bmp,obj (120).bmp,0.0,--,--,--,--,--,--,--,--,--,--,--,--,--,--
