TrialNumber,Trial,ISI,ITI,winlose,face_image_L,face_image_R,ran,order,decision_onset,resp,rt,resp_onset,resp_offset,trialDuration,pre_feedback_fix_onset,pre_feedback_fix_duration,arrow_onset,arrow_offset,ITIonset,ITIoffset,Date_Time
1,1,4,8,loss,F120.jpg,F118.jpg,1.0,0.0,4.069064,999.0,999.0,999.0,7.083153,3.014799,7.084242,2.0,9.100973,12.118187,12.11841,20.136728,2019-11-04 10:31:06.038546
2,2,4,7,win,F106.jpg,F114.jpg,1.0,1.0,20.199186,999.0,999.0,999.0,23.211012,3.0123386,23.211857,2.0,25.228905,28.264097,28.26445,35.281208,2019-11-04 10:31:21.182644
3,3,4,6,loss,M112.jpg,M38.jpg,1.0,2.0,35.336018,999.0,999.0,999.0,38.33853,3.0030303,38.33938,2.0,40.3558,43.374454,43.37462,49.392323,2019-11-04 10:31:35.293550
4,4,3,2,loss,F96.jpg,F42.jpg,1.0,3.0,49.4519,999.0,999.0,999.0,52.465897,3.0145082,52.46674,2.0,54.482246,57.500256,57.50042,59.51968,2019-11-04 10:31:45.420759
5,5,5,7,loss,M12.jpg,M114.jpg,1.0,4.0,59.569523,999.0,999.0,999.0,62.572987,3.0039766,62.57383,2.0,64.59008,67.6074,67.60757,74.62691,2019-11-04 10:32:00.527764
6,6,5,6,win,M78.jpg,M60.jpg,1.0,5.0,74.66998,999.0,999.0,999.0,77.68308,3.0136206,77.68393,2.0,79.7008,82.73617,82.73651,88.754196,2019-11-04 10:32:14.654851
7,7,5,4,win,F20.jpg,F12.jpg,1.0,6.0,88.81973,999.0,999.0,999.0,91.826454,3.0072343,91.82729,2.0,93.84431,96.87974,96.87999,100.89694,2019-11-04 10:32:26.797412
8,8,6,6,loss,F92.jpg,F56.jpg,1.0,7.0,100.95213,999.0,999.0,999.0,103.96783,3.0162082,103.96867,2.0,105.98518,109.00455,109.004715,115.023,2019-11-04 10:32:40.923266
9,9,3,6,win,M26.jpg,M100.jpg,1.0,8.0,115.07345,999.0,999.0,999.0,118.07846,3.0055468,118.07933,2.0,120.09611,123.13084,123.13119,129.14935,2019-11-04 10:32:55.049412
10,10,4,4,win,M98.jpg,M04.jpg,1.0,9.0,129.2195,999.0,999.0,999.0,132.22238,3.0033963,132.22322,2.0,134.24031,137.27486,137.2752,141.29298,2019-11-04 10:33:07.192862
11,11,2,8,loss,M70.jpg,M116.jpg,1.0,10.0,141.34465,999.0,999.0,999.0,144.34686,3.002594,144.34749,2.0,146.36464,149.38284,149.38301,157.40157,2019-11-04 10:33:23.301213
12,12,5,7,loss,F44.jpg,F54.jpg,1.0,11.0,157.45876,999.0,999.0,999.0,160.4586,3.0003667,160.45946,2.0,162.47636,165.49463,165.4948,172.5131,2019-11-04 10:33:38.412536
13,13,6,7,win,M20.jpg,M110.jpg,1.0,12.0,172.56163,999.0,999.0,999.0,175.56964,3.008537,175.57048,2.0,177.58673,180.62306,180.62343,187.64105,2019-11-04 10:33:53.540271
14,14,6,6,win,F08.jpg,F112.jpg,1.0,13.0,187.69589,999.0,999.0,999.0,190.69646,3.0010755,190.6973,2.0,192.71414,195.7502,195.75055,201.76752,2019-11-04 10:34:07.666513
15,15,3,7,win,M68.jpg,M08.jpg,1.0,14.0,201.8157,999.0,999.0,999.0,204.82352,3.0083387,204.82437,2.0,206.84122,209.87648,209.87683,216.8945,2019-11-04 10:34:22.793280
16,16,3,7,win,F38.jpg,F68.jpg,1.0,15.0,216.96474,999.0,999.0,999.0,219.96738,3.0034063,219.96864,2.0,221.98499,225.0203,225.02066,232.03859,2019-11-04 10:34:37.937148
17,17,6,6,loss,M94.jpg,M66.jpg,1.0,16.0,232.07988,999.0,999.0,999.0,235.09482,3.0154562,235.09566,2.0,237.11269,240.1312,240.13145,246.1488,2019-11-04 10:34:52.047151
18,18,3,8,loss,F06.jpg,F32.jpg,1.0,17.0,246.21194,999.0,999.0,999.0,249.22176,3.0103233,249.22261,2.0,251.23943,254.25752,254.25769,262.2759,2019-11-04 10:35:08.174019
19,19,4,8,loss,M10.jpg,M72.jpg,1.0,18.0,262.32968,999.0,999.0,999.0,265.33316,3.0040023,265.334,2.0,267.3505,270.36908,270.36926,278.38757,2019-11-04 10:35:24.285435
20,20,2,6,win,F60.jpg,F18.jpg,1.0,19.0,278.45984,999.0,999.0,999.0,281.4615,3.0021422,281.4623,2.0,283.47906,286.51462,286.51495,292.53265,2019-11-04 10:35:38.430333
21,21,2,6,loss,F86.jpg,F48.jpg,1.0,20.0,292.59665,999.0,999.0,999.0,295.60468,3.0085454,295.60553,2.0,297.62256,300.63998,300.64014,306.66055,2019-11-04 10:35:52.558004
22,22,2,8,loss,M50.jpg,M84.jpg,1.0,21.0,306.71667,999.0,999.0,999.0,309.7322,3.0159383,309.73282,2.0,311.75,314.76923,314.7694,322.78622,2019-11-04 10:36:08.683438
23,23,6,7,win,F98.jpg,F24.jpg,1.0,22.0,322.84717,999.0,999.0,999.0,325.86038,3.0137389,325.86124,2.0,327.87906,330.9134,330.91376,337.9325,2019-11-04 10:36:23.829495
24,24,3,8,win,M102.jpg,M34.jpg,1.0,23.0,337.9801,999.0,999.0,999.0,340.98694,3.0073426,340.9878,2.0,343.0066,346.0409,346.04126,354.06003,2019-11-04 10:36:39.956783
25,25,4,8,loss,M80.jpg,M64.jpg,1.0,24.0,354.11304,999.0,999.0,999.0,357.1162,3.0036855,357.11703,2.0,359.13303,362.15222,362.1524,370.17178,2019-11-04 10:36:56.068308
26,26,6,2,loss,M62.jpg,M56.jpg,1.0,25.0,370.21924,999.0,999.0,999.0,373.22623,3.0075235,373.22708,2.0,375.2449,378.2634,378.26358,380.282,2019-11-04 10:37:06.178395
27,27,2,2,loss,M18.jpg,M120.jpg,1.0,26.0,380.33295,999.0,999.0,999.0,383.33344,3.0010068,383.3343,2.0,385.35144,388.3708,388.37097,390.38928,2019-11-04 10:37:16.285527
28,28,4,6,loss,F34.jpg,F76.jpg,1.0,27.0,390.45566,999.0,999.0,999.0,393.4573,3.0021572,393.45813,2.0,395.47693,398.49396,398.49414,404.51355,2019-11-04 10:37:30.409568
29,29,2,7,loss,M22.jpg,M40.jpg,1.0,28.0,404.5689,999.0,999.0,999.0,407.56885,3.0004518,407.56967,2.0,409.5876,412.60373,412.6039,419.62344,2019-11-04 10:37:45.519237
30,30,6,2,win,F52.jpg,F90.jpg,1.0,29.0,419.69254,999.0,999.0,999.0,422.6962,3.0041852,422.69705,2.0,424.7149,427.74905,427.7494,429.76776,2019-11-04 10:37:55.663417
31,31,4,2,loss,F22.jpg,F116.jpg,1.0,30.0,429.83768,999.0,999.0,999.0,432.85324,3.0160887,432.8541,2.0,434.87192,437.88922,437.8894,439.90787,2019-11-04 10:38:05.803380
32,32,2,4,win,M32.jpg,M96.jpg,1.0,31.0,439.95825,999.0,999.0,999.0,442.96036,3.002628,442.9612,2.0,444.97916,448.01346,448.0138,452.03152,2019-11-04 10:38:17.926905
33,33,6,2,win,F58.jpg,F16.jpg,1.0,32.0,452.09567,999.0,999.0,999.0,455.10223,3.0070732,455.10306,2.0,457.12085,460.15503,460.1554,462.17407,2019-11-04 10:38:28.069245
34,34,6,2,win,F26.jpg,F102.jpg,1.0,33.0,462.23044,999.0,999.0,999.0,465.2426,3.0126703,465.24344,2.0,467.26132,470.2957,470.29605,472.31314,2019-11-04 10:38:38.208166
35,35,4,8,win,M46.jpg,M58.jpg,1.0,34.0,472.35297,999.0,999.0,999.0,475.36658,3.0141082,475.3674,2.0,477.3854,480.41925,480.4196,488.43747,2019-11-04 10:38:54.332268
36,36,2,2,win,F82.jpg,F104.jpg,1.0,35.0,488.50674,999.0,999.0,999.0,491.51123,3.0050173,491.5121,2.0,493.529,496.56415,496.56448,498.5833,2019-11-04 10:39:04.477961
37,37,4,6,win,M92.jpg,M88.jpg,1.0,36.0,498.6453,999.0,999.0,999.0,501.65082,3.0060482,501.65167,2.0,503.6695,506.70456,506.7049,512.72345,2019-11-04 10:39:18.724377
38,38,4,6,loss,F84.jpg,F40.jpg,1.0,37.0,512.7949,999.0,999.0,999.0,515.7955,3.0011024,515.7963,2.0,517.8141,520.83136,520.83154,526.8509,2019-11-04 10:39:32.851660
39,39,2,2,win,M76.jpg,M86.jpg,1.0,38.0,526.91125,999.0,999.0,999.0,529.92004,3.009065,529.9205,2.0,531.93884,534.9749,534.9752,536.9939,2019-11-04 10:39:42.994596
40,40,2,2,loss,M82.jpg,M14.jpg,1.0,39.0,537.05707,999.0,999.0,999.0,540.0625,3.0059502,540.06335,2.0,542.08105,545.09924,545.0994,547.1177,2019-11-04 10:39:53.118261
41,41,2,2,win,F74.jpg,F78.jpg,1.0,40.0,547.176,999.0,999.0,999.0,550.1865,3.0109997,550.1874,2.0,552.20386,555.23883,555.2392,557.2568,2019-11-04 10:40:03.257185
42,42,2,2,win,M30.jpg,M06.jpg,1.0,41.0,557.31714,999.0,999.0,999.0,560.3257,3.0090678,560.32654,2.0,562.3455,565.38,565.3804,567.39746,2019-11-04 10:40:13.397753
43,43,4,4,loss,F02.jpg,F94.jpg,1.0,42.0,567.4649,999.0,999.0,999.0,570.4674,3.0030425,570.46826,2.0,572.4859,575.50433,575.5045,579.5228,2019-11-04 10:40:25.522968
44,44,2,2,win,F66.jpg,F70.jpg,1.0,43.0,579.5855,999.0,999.0,999.0,582.5928,3.007792,582.5936,2.0,584.6113,587.6456,587.646,589.6646,2019-11-04 10:40:35.664631
45,45,2,4,loss,F04.jpg,F64.jpg,1.0,44.0,589.72217,999.0,999.0,999.0,592.7321,3.0104554,592.733,2.0,594.7518,597.76917,597.76935,601.7886,2019-11-04 10:40:47.788450
46,46,8,2,loss,M52.jpg,M24.jpg,1.0,45.0,601.8465,999.0,999.0,999.0,604.8584,3.0124657,604.85925,2.0,606.877,609.89526,609.89545,611.9137,2019-11-04 10:40:57.913432
47,47,2,2,loss,F14.jpg,F62.jpg,1.0,46.0,611.98206,999.0,999.0,999.0,614.99896,3.0174682,614.9998,2.0,617.0159,620.03516,620.03534,622.0535,2019-11-04 10:41:08.053136
48,48,2,4,loss,M104.jpg,M16.jpg,1.0,47.0,622.10156,999.0,999.0,999.0,625.1062,3.005162,625.107,2.0,627.1248,630.1431,630.1433,634.1617,2019-11-04 10:41:20.161124
49,49,6,4,win,M36.jpg,M44.jpg,1.0,48.0,634.20654,999.0,999.0,999.0,637.215,3.0089667,637.2159,2.0,639.2336,642.26776,642.2681,646.2868,2019-11-04 10:41:32.286059
50,50,4,2,loss,F10.jpg,F108.jpg,1.0,49.0,646.3423,999.0,999.0,999.0,649.3556,3.013788,649.35645,2.0,651.3753,654.3937,654.39386,656.4122,2019-11-04 10:41:42.411319
51,51,2,4,loss,M118.jpg,M48.jpg,1.0,50.0,656.4597,999.0,999.0,999.0,659.464,3.0048046,659.46484,2.0,661.4826,664.4978,664.498,668.5195,2019-11-04 10:41:54.518473
52,52,8,2,win,F72.jpg,F80.jpg,1.0,51.0,668.58716,999.0,999.0,999.0,671.5891,3.0024529,671.58997,2.0,673.6076,676.642,676.64233,678.6611,2019-11-04 10:42:04.659940
53,53,2,4,win,M74.jpg,M90.jpg,1.0,52.0,678.71387,999.0,999.0,999.0,681.7297,3.016049,681.7301,2.0,683.7465,686.78265,686.783,690.80176,2019-11-04 10:42:16.800475
54,54,6,4,win,M42.jpg,M108.jpg,1.0,53.0,690.8602,999.0,999.0,999.0,693.87164,3.0119495,693.8725,2.0,695.8902,698.92474,698.92505,702.942,2019-11-04 10:42:28.940556
55,55,2,2,win,M28.jpg,M02.jpg,1.0,54.0,703.0039,999.0,999.0,999.0,706.01355,3.010179,706.0144,2.0,708.0322,711.06647,711.06683,713.0856,2019-11-04 10:42:39.083969
56,56,2,4,loss,F28.jpg,F100.jpg,1.0,55.0,713.1461,999.0,999.0,999.0,716.15424,3.0086153,716.155,2.0,718.17285,721.1911,721.1913,725.20874,2019-11-04 10:42:51.207003
57,57,4,6,loss,F36.jpg,F46.jpg,1.0,56.0,725.28357,999.0,999.0,999.0,728.2964,3.013311,728.29724,2.0,730.313,733.3325,733.3327,739.351,2019-11-04 10:43:05.349092
58,58,4,2,loss,M106.jpg,M54.jpg,1.0,57.0,739.3937,999.0,999.0,999.0,742.4051,3.0119581,742.406,2.0,744.4238,747.44214,747.4423,749.461,2019-11-04 10:43:15.458942
59,59,2,4,win,F30.jpg,F50.jpg,1.0,58.0,749.5266,999.0,999.0,999.0,752.5304,3.0042717,752.5312,2.0,754.549,757.5834,757.58374,761.6025,2019-11-04 10:43:27.600272
60,60,2,6,win,F110.jpg,F88.jpg,1.0,59.0,761.65753,999.0,999.0,999.0,764.6704,3.0133758,764.6712,2.0,766.68945,769.725,769.72534,775.7441,2019-11-04 10:43:41.741685
