TrialNumber,Trial,ISI,ITI,winlose,door_image_L,door_image_R,ran,order,decision_onset,resp,rt,resp_onset,resp_offset,trialDuration,pre_feedback_fix_onset,pre_feedback_fix_duration,arrow_onset,arrow_offset,ITIonset,ITIoffset,Date_Time
1,1,2,6,loss,obj (1).bmp,obj (61).bmp,1.0,0.0,4.015389,999.0,999.0,999.0,7.1136494,3.0986524,7.1142426,2.0,9.130856,12.148235,12.148458,18.166643,2019-11-20 16:22:49.942207
2,2,2,4,win,obj (2).bmp,obj (62).bmp,1.0,1.0,18.184149,3.0,1.0548874,19.239035,21.201027,3.0171707,21.201498,2.0,23.206947,26.242474,26.24285,30.260605,2019-11-20 16:23:02.035924
3,3,4,2,loss,obj (3).bmp,obj (63).bmp,1.0,2.0,30.27722,2.0,0.5354711,30.81269,33.2951,3.0183203,33.29571,2.0,35.316315,38.33332,38.33349,40.352833,2019-11-20 16:23:12.127997
4,4,4,6,loss,obj (4).bmp,obj (64).bmp,1.0,3.0,40.36971,999.0,999.0,999.0,43.472942,3.103521,43.473408,2.0,45.48991,48.507133,48.5073,54.526424,2019-11-20 16:23:26.301368
5,5,2,4,loss,obj (5).bmp,obj (65).bmp,1.0,4.0,54.542446,999.0,999.0,999.0,57.64996,3.1077957,57.650414,2.0,59.666065,62.6844,62.68457,66.70341,2019-11-20 16:23:38.478173
6,6,2,2,win,obj (6).bmp,obj (66).bmp,1.0,5.0,66.71875,--,--,--,--,--,--,--,--,--,--,--,--
7,7,6,4,win,obj (7).bmp,obj (67).bmp,0.0,--,--,--,--,--,--,--,--,--,--,--,--,--,--
8,8,2,4,loss,obj (8).bmp,obj (68).bmp,0.0,--,--,--,--,--,--,--,--,--,--,--,--,--,--
9,9,8,2,win,obj (9).bmp,obj (69).bmp,0.0,--,--,--,--,--,--,--,--,--,--,--,--,--,--
10,10,2,4,win,obj (10).bmp,obj (70).bmp,0.0,--,--,--,--,--,--,--,--,--,--,--,--,--,--
11,11,4,2,win,obj (11).bmp,obj (71).bmp,0.0,--,--,--,--,--,--,--,--,--,--,--,--,--,--
12,12,6,4,loss,obj (12).bmp,obj (72).bmp,0.0,--,--,--,--,--,--,--,--,--,--,--,--,--,--
13,13,2,4,win,obj (13).bmp,obj (73).bmp,0.0,--,--,--,--,--,--,--,--,--,--,--,--,--,--
14,14,2,2,loss,obj (14).bmp,obj (74).bmp,0.0,--,--,--,--,--,--,--,--,--,--,--,--,--,--
15,15,8,2,loss,obj (15).bmp,obj (75).bmp,0.0,--,--,--,--,--,--,--,--,--,--,--,--,--,--
16,16,2,4,win,obj (16).bmp,obj (76).bmp,0.0,--,--,--,--,--,--,--,--,--,--,--,--,--,--
17,17,2,2,loss,obj (17).bmp,obj (77).bmp,0.0,--,--,--,--,--,--,--,--,--,--,--,--,--,--
18,18,4,4,win,obj (18).bmp,obj (78).bmp,0.0,--,--,--,--,--,--,--,--,--,--,--,--,--,--
19,19,2,2,win,obj (19).bmp,obj (79).bmp,0.0,--,--,--,--,--,--,--,--,--,--,--,--,--,--
20,20,2,2,win,obj (20).bmp,obj (80).bmp,0.0,--,--,--,--,--,--,--,--,--,--,--,--,--,--
21,21,2,2,win,obj (21).bmp,obj (81).bmp,0.0,--,--,--,--,--,--,--,--,--,--,--,--,--,--
22,22,2,2,loss,obj (22).bmp,obj (82).bmp,0.0,--,--,--,--,--,--,--,--,--,--,--,--,--,--
23,23,4,6,loss,obj (23).bmp,obj (83).bmp,0.0,--,--,--,--,--,--,--,--,--,--,--,--,--,--
24,24,4,6,win,obj (24).bmp,obj (84).bmp,0.0,--,--,--,--,--,--,--,--,--,--,--,--,--,--
25,25,2,2,loss,obj (25).bmp,obj (85).bmp,0.0,--,--,--,--,--,--,--,--,--,--,--,--,--,--
26,26,4,8,loss,obj (26).bmp,obj (86).bmp,0.0,--,--,--,--,--,--,--,--,--,--,--,--,--,--
27,27,6,2,loss,obj (27).bmp,obj (87).bmp,0.0,--,--,--,--,--,--,--,--,--,--,--,--,--,--
28,28,6,2,loss,obj (28).bmp,obj (88).bmp,0.0,--,--,--,--,--,--,--,--,--,--,--,--,--,--
29,29,2,4,win,obj (29).bmp,obj (89).bmp,0.0,--,--,--,--,--,--,--,--,--,--,--,--,--,--
30,30,4,2,win,obj (30).bmp,obj (90).bmp,0.0,--,--,--,--,--,--,--,--,--,--,--,--,--,--
31,31,6,2,loss,obj (31).bmp,obj (91).bmp,0.0,--,--,--,--,--,--,--,--,--,--,--,--,--,--
32,32,2,7,win,obj (32).bmp,obj (92).bmp,0.0,--,--,--,--,--,--,--,--,--,--,--,--,--,--
33,33,4,6,loss,obj (33).bmp,obj (93).bmp,0.0,--,--,--,--,--,--,--,--,--,--,--,--,--,--
34,34,2,2,loss,obj (34).bmp,obj (94).bmp,0.0,--,--,--,--,--,--,--,--,--,--,--,--,--,--
35,35,6,2,loss,obj (35).bmp,obj (95).bmp,0.0,--,--,--,--,--,--,--,--,--,--,--,--,--,--
36,36,4,8,win,obj (36).bmp,obj (96).bmp,0.0,--,--,--,--,--,--,--,--,--,--,--,--,--,--
37,37,3,8,win,obj (37).bmp,obj (97).bmp,0.0,--,--,--,--,--,--,--,--,--,--,--,--,--,--
38,38,6,7,loss,obj (38).bmp,obj (98).bmp,0.0,--,--,--,--,--,--,--,--,--,--,--,--,--,--
39,39,2,8,win,obj (39).bmp,obj (99).bmp,0.0,--,--,--,--,--,--,--,--,--,--,--,--,--,--
40,40,2,6,win,obj (40).bmp,obj (100).bmp,0.0,--,--,--,--,--,--,--,--,--,--,--,--,--,--
41,41,2,6,win,obj (41).bmp,obj (101).bmp,0.0,--,--,--,--,--,--,--,--,--,--,--,--,--,--
42,42,4,8,loss,obj (42).bmp,obj (102).bmp,0.0,--,--,--,--,--,--,--,--,--,--,--,--,--,--
43,43,3,8,win,obj (43).bmp,obj (103).bmp,0.0,--,--,--,--,--,--,--,--,--,--,--,--,--,--
44,44,6,6,loss,obj (44).bmp,obj (104).bmp,0.0,--,--,--,--,--,--,--,--,--,--,--,--,--,--
45,45,3,7,loss,obj (45).bmp,obj (105).bmp,0.0,--,--,--,--,--,--,--,--,--,--,--,--,--,--
46,46,3,7,win,obj (46).bmp,obj (106).bmp,0.0,--,--,--,--,--,--,--,--,--,--,--,--,--,--
47,47,6,6,loss,obj (47).bmp,obj (107).bmp,0.0,--,--,--,--,--,--,--,--,--,--,--,--,--,--
48,48,6,7,win,obj (48).bmp,obj (108).bmp,0.0,--,--,--,--,--,--,--,--,--,--,--,--,--,--
49,49,5,7,win,obj (49).bmp,obj (109).bmp,0.0,--,--,--,--,--,--,--,--,--,--,--,--,--,--
50,50,2,8,win,obj (50).bmp,obj (110).bmp,0.0,--,--,--,--,--,--,--,--,--,--,--,--,--,--
51,51,4,4,win,obj (51).bmp,obj (111).bmp,0.0,--,--,--,--,--,--,--,--,--,--,--,--,--,--
52,52,3,6,loss,obj (52).bmp,obj (112).bmp,0.0,--,--,--,--,--,--,--,--,--,--,--,--,--,--
53,53,6,6,loss,obj (53).bmp,obj (113).bmp,0.0,--,--,--,--,--,--,--,--,--,--,--,--,--,--
54,54,5,4,win,obj (54).bmp,obj (114).bmp,0.0,--,--,--,--,--,--,--,--,--,--,--,--,--,--
55,55,5,6,loss,obj (55).bmp,obj (115).bmp,0.0,--,--,--,--,--,--,--,--,--,--,--,--,--,--
56,56,5,7,loss,obj (56).bmp,obj (116).bmp,0.0,--,--,--,--,--,--,--,--,--,--,--,--,--,--
57,57,3,2,loss,obj (57).bmp,obj (117).bmp,0.0,--,--,--,--,--,--,--,--,--,--,--,--,--,--
58,58,4,6,loss,obj (58).bmp,obj (118).bmp,0.0,--,--,--,--,--,--,--,--,--,--,--,--,--,--
59,59,4,7,win,obj (59).bmp,obj (119).bmp,0.0,--,--,--,--,--,--,--,--,--,--,--,--,--,--
60,60,4,8,win,obj (60).bmp,obj (120).bmp,0.0,--,--,--,--,--,--,--,--,--,--,--,--,--,--
﻿TrialNumber,Trial,ISI,ITI,winlose,door_image_L,door_image_R,ran,order,decision_onset,resp,rt,resp_onset,resp_offset,trialDuration,pre_feedback_fix_onset,pre_feedback_fix_duration,arrow_onset,arrow_offset,ITIonset,ITIoffset,Date_Time
1,1,2,6,loss,obj (1).bmp,obj (61).bmp,1.0,0.0,4.0203376,999.0,999.0,999.0,7.054181,3.0343406,7.0548434,2.0,9.060542,12.067138,12.067449,18.071676,2019-11-25 10:37:45.475702
2,2,2,4,win,obj (2).bmp,obj (62).bmp,1.0,1.0,18.097216,999.0,999.0,999.0,21.126553,3.0297158,21.127066,2.0,23.132526,26.142052,26.142317,30.15482,2019-11-25 10:37:57.558845
3,3,4,2,loss,obj (3).bmp,obj (63).bmp,1.0,2.0,30.174263,999.0,999.0,999.0,33.206726,3.032826,33.20723,2.0,35.212322,38.21685,38.217087,40.222378,2019-11-25 10:38:07.626306
4,4,4,6,loss,obj (4).bmp,obj (64).bmp,1.0,3.0,40.24168,999.0,999.0,999.0,43.275375,3.034101,43.275917,2.0,45.281036,48.28641,48.28665,54.29224,2019-11-25 10:38:21.696167
5,5,2,4,loss,obj (5).bmp,obj (65).bmp,1.0,4.0,54.313305,999.0,999.0,999.0,57.344902,3.0319731,57.345417,2.0,59.350925,62.355175,62.35541,66.36012,2019-11-25 10:38:33.764171
6,6,2,2,win,obj (6).bmp,obj (66).bmp,1.0,5.0,66.38071,999.0,999.0,999.0,69.41213,3.0318055,69.41265,2.0,71.41769,74.42642,74.4267,76.44874,2019-11-25 10:38:43.853597
7,7,6,4,win,obj (7).bmp,obj (67).bmp,1.0,6.0,76.46883,999.0,999.0,999.0,79.50223,3.0337615,79.50272,2.0,81.50853,84.518005,84.51827,88.540764,2019-11-25 10:38:55.944844
8,8,2,4,loss,obj (8).bmp,obj (68).bmp,1.0,7.0,88.56062,999.0,999.0,999.0,91.59438,3.0341277,91.59489,2.0,93.59917,96.60411,96.60435,100.60875,2019-11-25 10:39:08.012817
9,9,8,2,win,obj (9).bmp,obj (69).bmp,1.0,8.0,100.62869,999.0,999.0,999.0,103.662346,3.034022,103.662865,2.0,105.66817,108.67707,108.67732,110.68766,2019-11-25 10:39:18.091600
10,10,2,4,win,obj (10).bmp,obj (70).bmp,1.0,9.0,110.70742,999.0,999.0,999.0,113.7395,3.0324576,113.74001,2.0,115.74442,118.75379,118.75405,122.761856,2019-11-25 10:39:30.165929
11,11,4,2,win,obj (11).bmp,obj (71).bmp,1.0,10.0,122.7823,999.0,999.0,999.0,125.81396,3.0320382,125.81448,2.0,127.82013,130.83002,130.83028,132.8525,2019-11-25 10:39:40.256545
12,12,6,4,loss,obj (12).bmp,obj (72).bmp,1.0,11.0,132.87303,999.0,999.0,999.0,135.906,3.033339,135.90651,2.0,137.91118,140.91594,140.91617,144.92111,2019-11-25 10:39:52.325073
13,13,2,4,win,obj (13).bmp,obj (73).bmp,1.0,12.0,144.94133,999.0,999.0,999.0,147.97491,3.0339713,147.97545,2.0,149.9797,152.98949,152.98976,157.0014,2019-11-25 10:40:04.405352
14,14,2,2,loss,obj (14).bmp,obj (74).bmp,1.0,13.0,157.02142,999.0,999.0,999.0,160.05359,3.0325744,160.05415,2.0,162.05841,165.06306,165.0633,167.06845,2019-11-25 10:40:14.472411
15,15,8,2,loss,obj (15).bmp,obj (75).bmp,1.0,14.0,167.0882,999.0,999.0,999.0,170.12018,3.032379,170.12071,2.0,172.12558,175.12978,175.13,177.13557,2019-11-25 10:40:24.539682
16,16,2,4,win,obj (16).bmp,obj (76).bmp,1.0,15.0,177.15541,999.0,999.0,999.0,180.18614,3.0310996,180.18665,2.0,182.19196,185.20125,185.20154,189.22417,2019-11-25 10:40:36.628259
17,17,2,2,loss,obj (17).bmp,obj (77).bmp,1.0,16.0,189.2444,999.0,999.0,999.0,192.27612,3.0320811,192.27663,2.0,194.28157,197.2866,197.28683,199.29182,2019-11-25 10:40:46.695951
18,18,4,4,win,obj (18).bmp,obj (78).bmp,1.0,17.0,199.31168,999.0,999.0,999.0,202.34409,3.0327928,202.3446,2.0,204.34938,207.35846,207.35873,211.37341,2019-11-25 10:40:58.777373
19,19,2,2,win,obj (19).bmp,obj (79).bmp,1.0,18.0,211.39328,999.0,999.0,999.0,214.42346,3.0305507,214.42398,2.0,216.42828,219.43755,219.43782,221.44658,2019-11-25 10:41:08.850537
20,20,2,2,win,obj (20).bmp,obj (80).bmp,1.0,19.0,221.46715,999.0,999.0,999.0,224.50168,3.0348964,224.50217,2.0,226.50763,229.51677,229.51703,231.53752,2019-11-25 10:41:18.941485
21,21,2,2,win,obj (21).bmp,obj (81).bmp,1.0,20.0,231.5576,999.0,999.0,999.0,234.58983,3.0326161,234.59035,2.0,236.59459,239.60394,239.60419,241.61263,2019-11-25 10:41:29.016718
22,22,2,2,loss,obj (22).bmp,obj (82).bmp,1.0,21.0,241.63297,999.0,999.0,999.0,244.6669,3.0343163,244.66742,2.0,246.67169,249.67635,249.67657,251.68138,2019-11-25 10:41:39.085476
23,23,4,6,loss,obj (23).bmp,obj (83).bmp,1.0,22.0,251.70163,999.0,999.0,999.0,254.7326,3.0313418,254.73311,2.0,256.73822,259.7432,259.74344,265.74854,2019-11-25 10:41:53.152525
24,24,4,6,win,obj (24).bmp,obj (84).bmp,1.0,23.0,265.76917,999.0,999.0,999.0,268.80023,3.0314374,268.80075,2.0,270.8054,273.8144,273.81464,279.83554,2019-11-25 10:42:07.239626
25,25,2,2,loss,obj (25).bmp,obj (85).bmp,1.0,24.0,279.85666,999.0,999.0,999.0,282.88663,3.0303245,282.88712,2.0,284.89194,287.8973,287.89755,289.90323,2019-11-25 10:42:17.308129
26,26,4,8,loss,obj (26).bmp,obj (86).bmp,1.0,25.0,289.92325,999.0,999.0,999.0,292.95517,3.0322807,292.9557,2.0,294.9605,297.96576,297.96597,305.9707,2019-11-25 10:42:33.374819
27,27,6,2,loss,obj (27).bmp,obj (87).bmp,1.0,26.0,305.99088,999.0,999.0,999.0,309.02475,3.0342395,309.02527,2.0,311.02957,314.03436,314.0346,316.04062,2019-11-25 10:42:43.444577
28,28,6,2,loss,obj (28).bmp,obj (88).bmp,1.0,27.0,316.06143,999.0,999.0,999.0,319.094,3.0329318,319.09448,2.0,321.09903,324.10397,324.10422,326.10913,2019-11-25 10:42:53.513283
29,29,2,4,win,obj (29).bmp,obj (89).bmp,1.0,28.0,326.1294,999.0,999.0,999.0,329.16104,3.0319924,329.16153,2.0,331.1666,334.17587,334.17615,338.18518,2019-11-25 10:43:05.589159
30,30,4,2,win,obj (30).bmp,obj (90).bmp,1.0,29.0,338.20578,999.0,999.0,999.0,341.23645,3.0310433,341.23697,2.0,343.24258,346.25192,346.25217,348.27563,2019-11-25 10:43:15.679593
31,31,6,2,loss,obj (31).bmp,obj (91).bmp,1.0,30.0,348.29608,999.0,999.0,999.0,351.32855,3.0328324,351.32907,2.0,353.33472,356.33926,356.3395,358.34387,2019-11-25 10:43:25.747818
32,32,2,7,win,obj (32).bmp,obj (92).bmp,1.0,31.0,358.36536,999.0,999.0,999.0,361.39835,3.033364,361.39883,2.0,363.40402,366.41324,366.4135,373.42532,2019-11-25 10:43:40.829409
33,33,4,6,loss,obj (33).bmp,obj (93).bmp,1.0,32.0,373.4454,999.0,999.0,999.0,376.47653,3.0315003,376.47705,2.0,378.48224,381.4878,381.488,387.49234,2019-11-25 10:43:54.896427
34,34,2,2,loss,obj (34).bmp,obj (94).bmp,1.0,33.0,387.51263,999.0,999.0,999.0,390.54672,3.0344586,390.54724,2.0,392.5522,395.55673,395.55698,397.56137,2019-11-25 10:44:04.965474
35,35,6,2,loss,obj (35).bmp,obj (95).bmp,1.0,34.0,397.5822,999.0,999.0,999.0,400.61462,3.0327857,400.61514,2.0,402.6204,405.6249,405.62515,407.63013,2019-11-25 10:44:15.034178
36,36,4,8,win,obj (36).bmp,obj (96).bmp,1.0,35.0,407.65152,999.0,999.0,999.0,410.6835,3.0323958,410.68405,2.0,412.68948,415.69867,415.69894,423.7184,2019-11-25 10:44:31.122366
37,37,3,8,win,obj (37).bmp,obj (97).bmp,1.0,36.0,423.73947,999.0,999.0,999.0,426.77075,3.031651,426.77127,2.0,428.7771,431.78604,431.78632,439.80435,2019-11-25 10:44:47.208420
38,38,6,7,loss,obj (38).bmp,obj (98).bmp,1.0,37.0,439.82474,999.0,999.0,999.0,442.8594,3.0350525,442.85992,2.0,444.86505,447.86954,447.86978,454.8745,2019-11-25 10:45:02.278620
39,39,2,8,win,obj (39).bmp,obj (99).bmp,1.0,38.0,454.8947,999.0,999.0,999.0,457.92722,3.0328662,457.92773,2.0,459.93317,462.9434,462.94366,470.96274,2019-11-25 10:45:18.366878
40,40,2,6,win,obj (40).bmp,obj (100).bmp,1.0,39.0,470.9835,999.0,999.0,999.0,474.01517,3.0320616,474.0157,2.0,476.0201,479.0293,479.02957,485.04987,2019-11-25 10:45:32.454755
41,41,2,6,win,obj (41).bmp,obj (101).bmp,1.0,40.0,485.071,999.0,999.0,999.0,488.10352,3.0328875,488.10403,2.0,490.10843,493.1178,493.11807,499.13745,2019-11-25 10:45:46.541571
42,42,4,8,loss,obj (42).bmp,obj (102).bmp,1.0,41.0,499.15714,999.0,999.0,999.0,502.1905,3.033716,502.191,2.0,504.196,507.20074,507.201,515.20575,2019-11-25 10:46:02.609836
43,43,3,8,win,obj (43).bmp,obj (103).bmp,1.0,42.0,515.22687,999.0,999.0,999.0,518.2593,3.0329137,518.26,2.0,520.2654,523.2745,523.2749,531.29663,2019-11-25 10:46:18.700712
44,44,6,6,loss,obj (44).bmp,obj (104).bmp,1.0,43.0,531.31744,999.0,999.0,999.0,534.3493,3.0322173,534.3498,2.0,536.3547,539.35925,539.3595,545.3647,2019-11-25 10:46:32.768800
45,45,3,7,loss,obj (45).bmp,obj (105).bmp,1.0,44.0,545.3857,999.0,999.0,999.0,548.4181,3.0328996,548.41876,2.0,550.42474,553.429,553.42926,560.4337,2019-11-25 10:46:47.837798
46,46,3,7,win,obj (46).bmp,obj (106).bmp,1.0,45.0,560.45526,999.0,999.0,999.0,563.4876,3.0327485,563.48816,2.0,565.49255,568.5022,568.50244,575.52625,2019-11-25 10:47:02.930300
47,47,6,6,loss,obj (47).bmp,obj (107).bmp,1.0,46.0,575.54675,999.0,999.0,999.0,578.5796,3.0331955,578.58014,2.0,580.5859,583.5907,583.59094,589.59656,2019-11-25 10:47:17.000505
48,48,6,7,win,obj (48).bmp,obj (108).bmp,1.0,47.0,589.6181,999.0,999.0,999.0,592.65173,3.034003,592.6522,2.0,594.65753,597.667,597.66736,604.6851,2019-11-25 10:47:32.089178
49,49,5,7,win,obj (49).bmp,obj (109).bmp,1.0,48.0,604.7066,999.0,999.0,999.0,607.7366,3.0303023,607.73706,2.0,609.7423,612.75183,612.75214,619.77325,2019-11-25 10:47:47.177305
50,50,2,8,win,obj (50).bmp,obj (110).bmp,1.0,49.0,619.7946,999.0,999.0,999.0,622.8255,3.0312436,622.826,2.0,624.83185,627.84174,627.84204,635.86017,2019-11-25 10:48:03.264085
51,51,4,4,win,obj (51).bmp,obj (111).bmp,1.0,50.0,635.88116,999.0,999.0,999.0,638.914,3.0332031,638.9145,2.0,640.9201,643.9299,643.9301,647.9478,2019-11-25 10:48:15.351784
52,52,3,6,loss,obj (52).bmp,obj (112).bmp,1.0,51.0,647.9683,999.0,999.0,999.0,650.999,3.031057,650.9996,2.0,653.0043,656.0094,656.00964,662.01434,2019-11-25 10:48:29.418290
53,53,6,6,loss,obj (53).bmp,obj (113).bmp,1.0,52.0,662.0357,999.0,999.0,999.0,665.068,3.0326796,665.0685,2.0,667.0736,670.07837,670.0786,676.0835,2019-11-25 10:48:43.487377
54,54,5,4,win,obj (54).bmp,obj (114).bmp,1.0,53.0,676.10455,999.0,999.0,999.0,679.13763,3.0334988,679.1382,2.0,681.1426,684.15173,684.15204,688.1643,2019-11-25 10:48:55.568338
55,55,5,6,loss,obj (55).bmp,obj (115).bmp,1.0,54.0,688.1849,999.0,999.0,999.0,691.21704,3.0325265,691.2176,2.0,693.22296,696.2279,696.22815,702.233,2019-11-25 10:49:09.637048
56,56,5,7,loss,obj (56).bmp,obj (116).bmp,1.0,55.0,702.2535,999.0,999.0,999.0,705.2844,3.031317,705.285,2.0,707.29047,710.2956,710.29584,717.3009,2019-11-25 10:49:24.705716
57,57,3,2,loss,obj (57).bmp,obj (117).bmp,1.0,56.0,717.3217,999.0,999.0,999.0,720.35284,3.031473,720.35333,2.0,722.35846,725.3631,725.3633,727.3678,2019-11-25 10:49:34.771829
58,58,4,6,loss,obj (58).bmp,obj (118).bmp,1.0,57.0,727.38904,999.0,999.0,999.0,730.42267,3.034045,730.4232,2.0,732.42834,735.4332,735.4335,741.4383,2019-11-25 10:49:48.842345
59,59,4,7,win,obj (59).bmp,obj (119).bmp,1.0,58.0,741.4601,999.0,999.0,999.0,744.4931,3.0333967,744.49365,2.0,746.49854,749.50806,749.5085,756.5274,2019-11-25 10:50:03.931429
60,60,4,8,win,obj (60).bmp,obj (120).bmp,1.0,59.0,756.54834,999.0,999.0,999.0,759.58057,3.0326245,759.5811,2.0,761.5863,764.5953,764.5955,772.61456,2019-11-25 10:50:20.019385
﻿TrialNumber,Trial,ISI,ITI,winlose,door_image_L,door_image_R,ran,order,decision_onset,resp,rt,resp_onset,resp_offset,trialDuration,pre_feedback_fix_onset,pre_feedback_fix_duration,arrow_onset,arrow_offset,ITIonset,ITIoffset,Date_Time
1,1,0.6,5.3,loss,obj (1).bmp,obj (61).bmp,1.0,0.0,4.0180755,999.0,999.0,999.0,7.0496316,3.0320592,7.050335,2.0,9.0556,12.06489,12.065214,17.370737,2019-11-25 11:01:42.660150
2,2,0.6,1.1,win,obj (2).bmp,obj (62).bmp,1.0,1.0,17.38959,999.0,999.0,999.0,20.422857,3.0336382,20.423367,2.0,22.428507,25.437504,25.437857,26.55645,2019-11-25 11:01:51.845162
3,3,0.6,1.1,loss,obj (3).bmp,obj (63).bmp,1.0,2.0,26.571232,999.0,999.0,999.0,29.603739,3.032878,29.604252,2.0,31.609232,34.613857,34.61409,35.71984,2019-11-25 11:02:01.008682
4,4,0.6,3.2,loss,obj (4).bmp,obj (64).bmp,1.0,3.0,35.73433,999.0,999.0,999.0,38.766407,3.032447,38.766914,2.0,40.771942,43.77717,43.7774,46.98247,2019-11-25 11:02:12.271500
5,5,0.6,5.3,loss,obj (5).bmp,obj (65).bmp,1.0,4.0,46.997963,999.0,999.0,999.0,50.030125,3.0325468,50.03066,2.0,52.035698,55.04121,55.041447,60.3462,2019-11-25 11:02:25.635329
6,6,0.6,3.2,win,obj (6).bmp,obj (66).bmp,1.0,5.0,60.36155,999.0,999.0,999.0,63.392406,3.031266,63.392967,2.0,65.39779,68.4071,68.407364,71.61951,2019-11-25 11:02:36.908948
7,7,0.6,3.2,win,obj (7).bmp,obj (67).bmp,1.0,6.0,71.634834,999.0,999.0,999.0,74.66782,3.0333786,74.668365,2.0,76.674065,79.683624,79.68389,82.89384,2019-11-25 11:02:48.183315
8,8,0.6,1.1,loss,obj (8).bmp,obj (68).bmp,1.0,7.0,82.90933,999.0,999.0,999.0,85.94003,3.0310843,85.94055,2.0,87.945496,90.95062,90.95086,92.05733,2019-11-25 11:02:57.346969
9,9,0.6,1.1,win,obj (9).bmp,obj (69).bmp,1.0,8.0,92.07269,999.0,999.0,999.0,95.10458,3.032252,95.10509,2.0,97.10992,100.118744,100.11901,101.22763,2019-11-25 11:03:06.517562
10,10,0.6,1.1,win,obj (10).bmp,obj (70).bmp,1.0,9.0,101.24295,999.0,999.0,999.0,104.27509,3.0325203,104.27561,2.0,106.280754,109.29053,109.29078,110.40391,2019-11-25 11:03:15.693854
11,11,0.6,3.2,win,obj (11).bmp,obj (71).bmp,1.0,10.0,110.4191,999.0,999.0,999.0,113.452255,3.033518,113.45275,2.0,115.45764,118.466866,118.46713,121.678276,2019-11-25 11:03:26.968557
12,12,0.6,1.1,loss,obj (12).bmp,obj (72).bmp,1.0,11.0,121.69415,999.0,999.0,999.0,124.726944,3.0331578,124.727455,2.0,126.73232,129.73749,129.73773,130.8434,2019-11-25 11:03:36.133687
13,13,0.6,5.3,win,obj (13).bmp,obj (73).bmp,1.0,12.0,130.8588,999.0,999.0,999.0,133.89304,3.0347216,133.89374,2.0,135.89937,138.90854,138.90878,144.22815,2019-11-25 11:03:49.518524
14,14,0.6,1.1,loss,obj (14).bmp,obj (74).bmp,1.0,13.0,144.24367,999.0,999.0,999.0,147.27795,3.0346727,147.27847,2.0,149.28294,152.28821,152.28844,153.39456,2019-11-25 11:03:58.684868
15,15,0.6,5.3,loss,obj (15).bmp,obj (75).bmp,1.0,14.0,153.40979,999.0,999.0,999.0,156.44196,3.0325425,156.44247,2.0,158.44812,161.45268,161.45293,166.75851,2019-11-25 11:04:12.048898
16,16,0.6,3.2,win,obj (16).bmp,obj (76).bmp,1.0,15.0,166.77419,999.0,999.0,999.0,169.8049,3.0310853,169.80542,2.0,171.81126,174.82101,174.82126,178.03229,2019-11-25 11:04:23.322788
17,17,0.6,3.2,loss,obj (17).bmp,obj (77).bmp,1.0,16.0,178.04768,999.0,999.0,999.0,181.07951,3.0322015,181.08002,2.0,183.08495,186.08937,186.0896,189.29439,2019-11-25 11:04:34.585021
18,18,0.6,3.2,win,obj (18).bmp,obj (78).bmp,1.0,17.0,189.31468,999.0,999.0,999.0,192.34633,3.0320208,192.34685,2.0,194.35126,197.36026,197.36053,200.5803,2019-11-25 11:04:45.871086
19,19,0.6,11.6,win,obj (19).bmp,obj (79).bmp,1.0,18.0,200.5958,999.0,999.0,999.0,203.62834,3.0329392,203.62889,2.0,205.63358,208.64342,208.64368,220.25427,2019-11-25 11:05:05.545153
20,20,0.6,5.3,win,obj (20).bmp,obj (80).bmp,1.0,19.0,220.26968,999.0,999.0,999.0,223.30058,3.0312958,223.30113,2.0,225.30592,228.3153,228.31557,233.63777,2019-11-25 11:05:18.928758
21,21,0.6,5.3,win,obj (21).bmp,obj (81).bmp,1.0,20.0,233.65355,999.0,999.0,999.0,236.68532,3.0321672,236.68587,2.0,238.69089,241.7007,241.70103,247.01125,2019-11-25 11:05:32.302232
22,22,0.6,3.2,loss,obj (22).bmp,obj (82).bmp,1.0,21.0,247.03386,999.0,999.0,999.0,250.06683,3.0333536,250.06735,2.0,252.07301,255.0777,255.07793,258.28275,2019-11-25 11:05:43.573881
23,23,0.6,1.1,loss,obj (23).bmp,obj (83).bmp,1.0,22.0,258.29858,999.0,999.0,999.0,261.3312,3.0329988,261.33173,2.0,263.33646,266.34155,266.34177,267.4474,2019-11-25 11:05:52.739383
24,24,0.6,1.1,win,obj (24).bmp,obj (84).bmp,1.0,23.0,267.46292,999.0,999.0,999.0,270.49445,3.03191,270.49496,2.0,272.4992,275.50952,275.5098,276.6345,2019-11-25 11:06:01.925593
25,25,0.6,5.3,loss,obj (25).bmp,obj (85).bmp,1.0,24.0,276.65015,999.0,999.0,999.0,279.6835,3.033729,279.68402,2.0,281.68866,284.69345,284.69366,289.99847,2019-11-25 11:06:15.289833
26,26,0.6,5.3,loss,obj (26).bmp,obj (86).bmp,1.0,25.0,290.01398,999.0,999.0,999.0,293.04657,3.0329843,293.0471,2.0,295.05197,298.05664,298.05692,303.3618,2019-11-25 11:06:28.653225
27,27,0.6,3.2,loss,obj (27).bmp,obj (87).bmp,1.0,26.0,303.3774,999.0,999.0,999.0,306.41202,3.034984,306.4125,2.0,308.41776,311.4229,311.42316,314.6287,2019-11-25 11:06:39.920021
28,28,0.6,1.1,loss,obj (28).bmp,obj (88).bmp,1.0,27.0,314.64435,999.0,999.0,999.0,317.67776,3.0337987,317.67828,2.0,319.6831,322.68726,322.6875,323.7931,2019-11-25 11:06:49.084671
29,29,0.6,3.2,win,obj (29).bmp,obj (89).bmp,1.0,28.0,323.80865,999.0,999.0,999.0,326.8413,3.0330312,326.8418,2.0,328.84665,331.85635,331.8566,335.07013,2019-11-25 11:07:00.361598
30,30,0.6,1.1,win,obj (30).bmp,obj (90).bmp,1.0,29.0,335.0856,999.0,999.0,999.0,338.11923,3.033981,338.11975,2.0,340.1248,343.13385,343.1341,344.2454,2019-11-25 11:07:09.536985
31,31,0.6,1.1,loss,obj (31).bmp,obj (91).bmp,1.0,30.0,344.2612,999.0,999.0,999.0,347.29282,3.0319843,347.29333,2.0,349.29883,352.3033,352.30356,353.40924,2019-11-25 11:07:18.701024
32,32,0.6,1.1,win,obj (32).bmp,obj (92).bmp,1.0,31.0,353.42474,999.0,999.0,999.0,356.45547,3.0310977,356.456,2.0,358.46124,361.4714,361.47177,362.5937,2019-11-25 11:07:27.885586
33,33,0.6,5.3,loss,obj (33).bmp,obj (93).bmp,1.0,32.0,362.60922,999.0,999.0,999.0,365.64337,3.034519,365.6439,2.0,367.6499,370.65433,370.65457,375.95938,2019-11-25 11:07:41.251191
34,34,0.6,1.1,loss,obj (34).bmp,obj (94).bmp,1.0,33.0,375.97495,999.0,999.0,999.0,379.00824,3.0336773,379.00876,2.0,381.01428,384.0195,384.01978,385.1258,2019-11-25 11:07:50.417791
35,35,0.6,3.2,loss,obj (35).bmp,obj (95).bmp,1.0,34.0,385.14154,999.0,999.0,999.0,388.17578,3.0346105,388.17627,2.0,390.18146,393.18588,393.18613,396.39072,2019-11-25 11:08:01.682743
36,36,0.6,5.3,win,obj (36).bmp,obj (96).bmp,1.0,35.0,396.41132,999.0,999.0,999.0,399.44073,3.0297706,399.44125,2.0,401.4456,404.45572,404.45605,409.77707,2019-11-25 11:08:15.069226
37,37,0.6,5.3,win,obj (37).bmp,obj (97).bmp,1.0,36.0,409.79303,999.0,999.0,999.0,412.82532,3.0326886,412.82587,2.0,414.83112,417.84015,417.8405,423.1495,2019-11-25 11:08:28.441603
38,38,0.6,1.1,loss,obj (38).bmp,obj (98).bmp,1.0,37.0,423.16693,999.0,999.0,999.0,426.19937,3.0328066,426.1999,2.0,428.20605,431.2114,431.21164,432.31714,2019-11-25 11:08:37.609433
39,39,0.6,1.1,win,obj (39).bmp,obj (99).bmp,1.0,38.0,432.333,999.0,999.0,999.0,435.36447,3.0318425,435.365,2.0,437.37006,440.3796,440.37985,441.49884,2019-11-25 11:08:46.790960
40,40,0.6,5.3,win,obj (40).bmp,obj (100).bmp,1.0,39.0,441.5144,999.0,999.0,999.0,444.54715,3.0331404,444.5477,2.0,446.55283,449.56192,449.56223,454.8732,2019-11-25 11:09:00.165559
41,41,0.6,1.1,win,obj (41).bmp,obj (101).bmp,1.0,40.0,454.88876,999.0,999.0,999.0,457.92148,3.0330837,457.92197,2.0,459.92685,462.9362,462.93646,464.04672,2019-11-25 11:09:09.339088
42,42,0.6,3.2,loss,obj (42).bmp,obj (102).bmp,1.0,41.0,464.06244,999.0,999.0,999.0,467.0979,3.0358539,467.09842,2.0,469.1037,472.10883,472.10907,475.3133,2019-11-25 11:09:20.605665
43,43,0.6,7.4,win,obj (43).bmp,obj (103).bmp,1.0,42.0,475.3295,999.0,999.0,999.0,478.36163,3.0325234,478.36215,2.0,480.36676,483.3757,483.37598,490.79596,2019-11-25 11:09:36.088192
44,44,0.6,1.1,loss,obj (44).bmp,obj (104).bmp,1.0,43.0,490.812,999.0,999.0,999.0,493.84384,3.0322256,493.84436,2.0,495.84888,498.85437,498.85458,499.9597,2019-11-25 11:09:45.252141
45,45,0.6,1.1,loss,obj (45).bmp,obj (105).bmp,1.0,44.0,499.9757,999.0,999.0,999.0,503.00644,3.0311012,503.00696,2.0,505.01212,508.01743,508.0177,509.12332,2019-11-25 11:09:54.415797
46,46,0.6,1.1,win,obj (46).bmp,obj (106).bmp,1.0,45.0,509.1393,999.0,999.0,999.0,512.172,3.033057,512.1725,2.0,514.178,517.187,517.1873,518.30206,2019-11-25 11:10:03.595337
47,47,0.6,3.2,loss,obj (47).bmp,obj (107).bmp,1.0,46.0,518.3186,999.0,999.0,999.0,521.3496,3.0313728,521.35016,2.0,523.3553,526.3597,526.3599,529.56525,2019-11-25 11:10:14.857603
48,48,0.6,5.3,win,obj (48).bmp,obj (108).bmp,1.0,47.0,529.5813,999.0,999.0,999.0,532.6141,3.033221,532.6147,2.0,534.62,537.62976,537.63,542.9514,2019-11-25 11:10:28.243888
49,49,0.6,5.3,win,obj (49).bmp,obj (109).bmp,1.0,48.0,542.9674,999.0,999.0,999.0,546.00256,3.0354958,546.00305,2.0,548.0082,551.0179,551.0181,556.34045,2019-11-25 11:10:41.633450
50,50,0.6,5.3,win,obj (50).bmp,obj (110).bmp,1.0,49.0,556.35657,999.0,999.0,999.0,559.39026,3.0340285,559.39075,2.0,561.39606,564.40564,564.4059,569.73004,2019-11-25 11:10:55.021585
51,51,0.6,3.2,win,obj (51).bmp,obj (111).bmp,1.0,50.0,569.74664,999.0,999.0,999.0,572.77826,3.031983,572.77875,2.0,574.78406,577.7936,577.7939,581.0156,2019-11-25 11:11:06.306789
52,52,0.6,1.1,loss,obj (52).bmp,obj (112).bmp,1.0,51.0,581.03174,999.0,999.0,999.0,584.0637,3.0323102,584.0642,2.0,586.06946,589.07416,589.0744,590.18,2019-11-25 11:11:15.470991
53,53,0.6,3.2,loss,obj (53).bmp,obj (113).bmp,1.0,52.0,590.1964,999.0,999.0,999.0,593.2289,3.0328434,593.2294,2.0,595.2344,598.24023,598.2405,601.44617,2019-11-25 11:11:26.736632
54,54,0.6,3.2,win,obj (54).bmp,obj (114).bmp,1.0,53.0,601.46265,999.0,999.0,999.0,604.49457,3.0323136,604.4951,2.0,606.4999,609.50836,609.5086,612.72504,2019-11-25 11:11:38.015261
55,55,0.6,1.1,loss,obj (55).bmp,obj (115).bmp,1.0,54.0,612.7415,999.0,999.0,999.0,615.7736,3.032434,615.7741,2.0,617.779,620.7844,620.78467,621.8898,2019-11-25 11:11:47.179639
56,56,0.6,1.1,loss,obj (56).bmp,obj (116).bmp,1.0,55.0,621.9071,999.0,999.0,999.0,624.93964,3.033034,624.9403,2.0,626.9445,629.94855,629.9487,631.0543,2019-11-25 11:11:56.343864
57,57,0.6,1.1,loss,obj (57).bmp,obj (117).bmp,1.0,56.0,631.07,999.0,999.0,999.0,634.1017,3.0320246,634.10223,2.0,636.10706,639.11237,639.1126,640.2182,2019-11-25 11:12:05.507414
58,58,0.6,5.3,loss,obj (58).bmp,obj (118).bmp,1.0,57.0,640.23676,999.0,999.0,999.0,643.2695,3.0331252,643.27,2.0,645.2752,648.27966,648.2799,653.5845,2019-11-25 11:12:18.873234
59,59,0.6,5.3,win,obj (59).bmp,obj (119).bmp,1.0,58.0,653.60095,999.0,999.0,999.0,656.63306,3.0324426,656.63354,2.0,658.63885,661.64825,661.64856,666.9657,2019-11-25 11:12:32.253940
60,60,0.6,5.3,win,obj (60).bmp,obj (120).bmp,1.0,59.0,666.98224,999.0,999.0,999.0,670.01544,3.0335352,670.0159,2.0,672.0203,675.03015,675.0305,680.3516,2019-11-25 11:12:45.639403
