TrialNumber,Trial,ISI,ITI,winlose,door_image_L,door_image_R,ran,order,decision_onset,resp,rt,resp_onset,resp_offset,trialDuration,pre_feedback_fix_onset,pre_feedback_fix_duration,arrow_onset,arrow_offset,ITIonset,ITIoffset,Date_Time
1,1,4,8,win,obj (126).bmp,obj (189).bmp,1.0,0.0,4.0157304,999.0,999.0,999.0,7.027021,3.0118067,7.0276914,2.0,9.044184,12.051734,12.052058,20.059637,2019-11-07 14:59:15.495201
2,2,4,7,loss,obj (127).bmp,obj (190).bmp,1.0,1.0,20.078287,999.0,999.0,999.0,23.091726,3.0137856,23.092186,2.0,25.109608,28.112715,28.112934,35.115818,2019-11-07 14:59:30.551634
3,3,4,6,loss,obj (128).bmp,obj (191).bmp,1.0,2.0,35.130707,999.0,999.0,999.0,38.140083,3.0097177,38.14056,2.0,40.15743,43.16023,43.160446,49.16342,2019-11-07 14:59:44.598780
4,4,3,2,loss,obj (130).bmp,obj (192).bmp,1.0,3.0,49.17842,999.0,999.0,999.0,52.188404,3.0103574,52.188896,2.0,54.205406,57.20812,57.208336,59.21206,2019-11-07 14:59:54.647957
5,5,5,7,loss,obj (131).bmp,obj (194).bmp,1.0,4.0,59.22658,999.0,999.0,999.0,62.23722,3.010977,62.23767,2.0,64.25398,67.25762,67.25783,74.260994,2019-11-07 15:00:09.697195
6,6,5,6,loss,obj (132).bmp,obj (195).bmp,1.0,5.0,74.27626,999.0,999.0,999.0,77.28545,3.0095563,77.28593,2.0,79.30281,82.30592,82.30614,88.30939,2019-11-07 15:00:23.745670
7,7,5,4,loss,obj (133).bmp,obj (196).bmp,1.0,6.0,88.32448,999.0,999.0,999.0,91.333565,3.00944,91.334045,2.0,93.3501,96.353676,96.35388,100.35678,2019-11-07 15:00:35.793285
8,8,6,6,loss,obj (134).bmp,obj (197).bmp,1.0,7.0,100.37151,999.0,999.0,999.0,103.38272,3.0115747,103.38322,2.0,105.39956,108.40284,108.40305,114.40653,2019-11-07 15:00:49.842971
9,9,3,6,win,obj (135).bmp,obj (198).bmp,1.0,8.0,114.421524,999.0,999.0,999.0,117.43146,3.010293,117.43193,2.0,119.44742,122.453575,122.45382,128.46451,2019-11-07 15:01:03.901119
10,10,4,4,win,obj (136).bmp,obj (199).bmp,1.0,9.0,128.47935,999.0,999.0,999.0,131.4796,3.0006256,131.48009,2.0,133.49648,136.50235,136.5026,140.51248,2019-11-07 15:01:15.949186
11,11,2,8,win,obj (137).bmp,obj (200).bmp,1.0,10.0,140.5268,999.0,999.0,999.0,143.52826,3.0018568,143.52878,2.0,145.54547,148.55196,148.5522,156.56128,2019-11-07 15:01:31.998143
12,12,5,7,win,obj (138).bmp,obj (201).bmp,1.0,11.0,156.57639,999.0,999.0,999.0,159.57672,3.000748,159.57726,2.0,161.5944,164.59984,164.60008,171.60962,2019-11-07 15:01:47.046672
13,13,6,7,win,obj (139).bmp,obj (202).bmp,1.0,12.0,171.62471,999.0,999.0,999.0,174.62473,3.000388,174.62521,2.0,176.64166,179.64732,179.64757,186.65703,2019-11-07 15:02:02.094161
14,14,6,6,loss,obj (140).bmp,obj (203).bmp,1.0,13.0,186.67296,999.0,999.0,999.0,189.67311,3.0005133,189.6736,2.0,191.68936,194.6928,194.69301,200.69672,2019-11-07 15:02:16.134018
15,15,3,7,win,obj (142).bmp,obj (204).bmp,1.0,14.0,200.71162,999.0,999.0,999.0,203.72124,3.0099645,203.7217,2.0,205.73784,208.74437,208.74461,215.75426,2019-11-07 15:02:31.191753
16,16,3,7,loss,obj (143).bmp,obj (205).bmp,1.0,15.0,215.76945,999.0,999.0,999.0,218.7698,3.0007215,218.7703,2.0,220.78677,223.79012,223.79033,230.79358,2019-11-07 15:02:46.231164
17,17,6,6,loss,obj (144).bmp,obj (206).bmp,1.0,16.0,230.80878,999.0,999.0,999.0,233.81802,3.0096095,233.8185,2.0,235.83435,238.83809,238.8383,244.84142,2019-11-07 15:03:00.278746
18,18,3,8,win,obj (145).bmp,obj (207).bmp,1.0,17.0,244.85641,999.0,999.0,999.0,247.86649,3.0104055,247.86693,2.0,249.8835,252.88882,252.88905,260.89853,2019-11-07 15:03:16.336653
19,19,4,8,loss,obj (146).bmp,obj (208).bmp,1.0,18.0,260.91376,999.0,999.0,999.0,263.9146,3.0012467,263.9151,2.0,265.9313,268.93478,268.935,276.93814,2019-11-07 15:03:32.376173
20,20,2,6,win,obj (147).bmp,obj (209).bmp,1.0,19.0,276.95322,999.0,999.0,999.0,279.96262,3.0097568,279.96307,2.0,281.97916,284.98596,284.9862,290.99548,2019-11-07 15:03:46.433754
21,21,2,6,win,obj (148).bmp,obj (210).bmp,1.0,20.0,291.0133,999.0,999.0,999.0,294.02808,3.015125,294.02856,2.0,296.044,299.05017,299.0504,305.06168,2019-11-07 15:04:00.500088
22,22,2,8,win,obj (149).bmp,obj (211).bmp,1.0,21.0,305.0771,999.0,999.0,999.0,308.09296,3.0162349,308.09344,2.0,310.10983,313.1158,313.11606,321.12512,2019-11-07 15:04:16.563837
23,23,6,7,loss,obj (151).bmp,obj (212).bmp,1.0,22.0,321.14005,999.0,999.0,999.0,324.14102,3.0013418,324.1415,2.0,326.15805,329.16098,329.16122,336.1647,2019-11-07 15:04:31.603343
24,24,3,8,win,obj (152).bmp,obj (213).bmp,1.0,23.0,336.17978,999.0,999.0,999.0,339.1893,3.0098956,339.18982,2.0,341.20572,344.2116,344.21188,352.22266,2019-11-07 15:04:47.661687
25,25,4,8,win,obj (153).bmp,obj (214).bmp,1.0,24.0,352.238,999.0,999.0,999.0,355.2542,3.0166097,355.25476,2.0,357.2717,360.2784,360.27866,368.28754,2019-11-07 15:05:03.726502
26,26,6,2,loss,obj (154).bmp,obj (215).bmp,1.0,25.0,368.30298,999.0,999.0,999.0,371.31906,3.0164082,371.31952,2.0,373.33612,376.3396,376.3398,378.34344,2019-11-07 15:05:13.782692
27,27,2,2,loss,obj (155).bmp,obj (216).bmp,1.0,26.0,378.3585,999.0,999.0,999.0,381.3679,3.0097435,381.36835,2.0,383.38412,386.38742,386.38763,388.39127,2019-11-07 15:05:23.830448
28,28,4,6,loss,obj (156).bmp,obj (217).bmp,1.0,27.0,388.40585,999.0,999.0,999.0,391.41708,3.0116198,391.4176,2.0,393.43335,396.4369,396.4371,402.44,2019-11-07 15:05:37.879328
29,29,2,7,win,obj (157).bmp,obj (218).bmp,1.0,28.0,402.4551,999.0,999.0,999.0,405.4651,3.0103412,405.4656,2.0,407.48358,410.48993,410.49017,417.4984,2019-11-07 15:05:52.937998
30,30,6,2,loss,obj (158).bmp,obj (219).bmp,1.0,29.0,417.51382,999.0,999.0,999.0,420.52997,3.0165486,420.5305,2.0,422.5473,425.55023,425.55045,427.55362,2019-11-07 15:06:02.993194
31,31,4,2,win,obj (159).bmp,obj (220).bmp,1.0,30.0,427.56824,999.0,999.0,999.0,430.579,3.0111203,430.57947,2.0,432.59592,435.60208,435.60233,437.61176,2019-11-07 15:06:13.051603
32,32,2,4,win,obj (160).bmp,obj (221).bmp,1.0,31.0,437.62604,999.0,999.0,999.0,440.62775,3.002154,440.6283,2.0,442.6449,445.65103,445.65128,449.66025,2019-11-07 15:06:25.100318
33,33,6,2,loss,obj (161).bmp,obj (222).bmp,1.0,32.0,449.67554,999.0,999.0,999.0,452.67618,3.001037,452.6767,2.0,454.69287,457.6965,457.69672,459.7003,2019-11-07 15:06:35.140133
34,34,6,2,loss,obj (162).bmp,obj (223).bmp,1.0,33.0,459.71506,999.0,999.0,999.0,462.72528,3.0105443,462.7257,2.0,464.742,467.7453,467.7455,469.7489,2019-11-07 15:06:45.188968
35,35,4,8,loss,obj (163).bmp,obj (224).bmp,1.0,34.0,469.76352,999.0,999.0,999.0,472.77414,3.0109704,472.77463,2.0,474.79126,477.79465,477.79486,485.79846,2019-11-07 15:07:01.238793
36,36,2,2,loss,obj (164).bmp,obj (225).bmp,1.0,35.0,485.8137,999.0,999.0,999.0,488.82242,3.0091298,488.82294,2.0,490.83878,493.84235,493.84256,495.8462,2019-11-07 15:07:11.286472
37,37,4,6,win,obj (165).bmp,obj (226).bmp,1.0,36.0,495.8609,999.0,999.0,999.0,498.87106,3.0105474,498.87158,2.0,500.8883,503.89532,503.89557,509.90414,2019-11-07 15:07:25.344594
38,38,4,6,loss,obj (166).bmp,obj (227).bmp,1.0,37.0,509.91953,999.0,999.0,999.0,512.9196,3.0004592,512.9201,2.0,514.9368,517.93994,517.9402,523.94385,2019-11-07 15:07:39.384407
39,39,2,2,loss,obj (167).bmp,obj (228).bmp,1.0,38.0,523.9591,999.0,999.0,999.0,526.968,3.0092802,526.9685,2.0,528.985,531.98804,531.9882,533.99164,2019-11-07 15:07:49.432280
40,40,2,2,win,obj (168).bmp,obj (229).bmp,1.0,39.0,534.00616,999.0,999.0,999.0,537.01697,3.0111434,537.01746,2.0,539.0332,542.0395,542.03973,544.0498,2019-11-07 15:07:59.490684
41,41,2,2,win,obj (169).bmp,obj (230).bmp,1.0,40.0,544.06464,999.0,999.0,999.0,547.06573,3.001463,547.0662,2.0,549.0825,552.0885,552.0888,554.0993,2019-11-07 15:08:09.540066
42,42,2,2,win,obj (170).bmp,obj (231).bmp,1.0,41.0,554.1142,999.0,999.0,999.0,557.1146,3.000795,557.1151,2.0,559.1315,562.13806,562.1383,564.14825,2019-11-07 15:08:19.589184
43,43,4,4,win,obj (171).bmp,obj (232).bmp,1.0,42.0,564.1629,999.0,999.0,999.0,567.1635,3.000976,567.164,2.0,569.18054,572.18646,572.1867,576.1963,2019-11-07 15:08:31.637366
44,44,2,2,win,obj (172).bmp,obj (233).bmp,1.0,43.0,576.2109,999.0,999.0,999.0,579.2121,3.0015414,579.2126,2.0,581.22894,584.2354,584.2357,586.24445,2019-11-07 15:08:41.685551
45,45,2,4,win,obj (173).bmp,obj (234).bmp,1.0,44.0,586.2592,999.0,999.0,999.0,589.26086,3.0020392,589.26135,2.0,591.27814,594.2847,594.285,598.2939,2019-11-07 15:08:53.735253
46,46,8,2,loss,obj (174).bmp,obj (235).bmp,1.0,45.0,598.3173,999.0,999.0,999.0,601.3263,3.0093286,601.3267,2.0,603.3433,606.34705,606.3473,608.35114,2019-11-07 15:09:03.792509
47,47,2,2,loss,obj (175).bmp,obj (236).bmp,1.0,46.0,608.3659,999.0,999.0,999.0,611.37537,3.009802,611.3758,2.0,613.39215,616.39514,616.3954,618.3997,2019-11-07 15:09:13.841401
48,48,2,4,win,obj (176).bmp,obj (237).bmp,1.0,47.0,618.4145,999.0,999.0,999.0,621.42346,3.0093586,621.424,2.0,623.44037,626.4467,626.447,630.45593,2019-11-07 15:09:25.897532
49,49,6,4,loss,obj (177).bmp,obj (238).bmp,1.0,48.0,630.4711,999.0,999.0,999.0,633.4724,3.001633,633.4729,2.0,635.4888,638.4922,638.49243,642.49567,2019-11-07 15:09:37.937352
50,50,4,2,win,obj (178).bmp,obj (239).bmp,1.0,49.0,642.5105,999.0,999.0,999.0,645.5214,3.0112674,645.52185,2.0,647.5382,650.544,650.54425,652.5548,2019-11-07 15:09:47.996621
51,51,2,4,win,obj (179).bmp,obj (240).bmp,1.0,50.0,652.5703,999.0,999.0,999.0,655.5863,3.0163941,655.5868,2.0,657.6032,660.60925,660.60944,664.6202,2019-11-07 15:10:00.062095
52,52,8,2,win,obj (180).bmp,obj (241).bmp,1.0,51.0,664.6398,999.0,999.0,999.0,667.6521,3.0126703,667.6526,2.0,669.6684,672.67487,672.6752,674.68414,2019-11-07 15:10:10.126314
53,53,2,4,loss,obj (181).bmp,obj (242).bmp,1.0,52.0,674.69916,999.0,999.0,999.0,677.7011,3.0022802,677.7016,2.0,679.7179,682.7215,682.7217,686.7245,2019-11-07 15:10:22.166825
54,54,6,4,loss,obj (182).bmp,obj (243).bmp,1.0,53.0,686.73926,999.0,999.0,999.0,689.7495,3.0106554,689.75,2.0,691.76636,694.76953,694.7697,698.77295,2019-11-07 15:10:34.215189
55,55,2,2,win,obj (183).bmp,obj (244).bmp,1.0,54.0,698.7878,999.0,999.0,999.0,701.7983,3.0108516,701.79877,2.0,703.81586,706.8218,706.822,708.83093,2019-11-07 15:10:44.273263
56,56,2,4,loss,obj (184).bmp,obj (245).bmp,1.0,55.0,708.8458,999.0,999.0,999.0,711.8469,3.0014915,711.8474,2.0,713.8645,716.86755,716.86774,720.8709,2019-11-07 15:10:56.313376
57,57,4,6,loss,obj (185).bmp,obj (246).bmp,1.0,56.0,720.88586,999.0,999.0,999.0,723.8956,3.010095,723.8961,2.0,725.91266,728.916,728.91626,734.91956,2019-11-07 15:11:10.362140
58,58,4,2,win,obj (186).bmp,obj (247).bmp,1.0,57.0,734.9355,999.0,999.0,999.0,737.9441,3.0089383,737.9446,2.0,739.9608,742.96735,742.9676,744.9769,2019-11-07 15:11:20.419584
59,59,2,4,loss,obj (187).bmp,obj (248).bmp,1.0,58.0,744.99194,999.0,999.0,999.0,747.99286,3.0012853,747.99335,2.0,750.0099,753.0135,753.01373,757.0171,2019-11-07 15:11:32.459874
60,60,2,6,win,obj (188).bmp,obj (249).bmp,1.0,59.0,757.039,999.0,999.0,999.0,760.0416,3.003016,760.0421,2.0,762.05865,765.0651,765.06537,771.0745,2019-11-07 15:11:46.517477
