TrialNumber,ISI,ITI,L_Option,Endowment,R_Option,nTrial,Block,ran,order,cue_Onset,endowment_onset,endowment_offset,ISI_onset,ISI_offset,decision_onset,resp,rt,resp_onset,decision_offset,trialDuration,ITIonset,ITIoffset
1,1.5,3,0,19,1,1,3,1.0,0.0,4.99069,5.98941,6.00621,6.00651,7.52288,7.52311,2.0,1.23375,8.75686,11.0386,3.51604,11.0393,14.0446
2,3,8,6,19,1,2,1,1.0,1.0,15.0407,16.0393,16.0561,16.0564,19.0729,19.0731,3.0,0.950146,20.0232,22.588,3.51529,22.5885,30.592
3,1.5,5,1,21,9,3,1,1.0,2.0,31.591,32.5893,32.6063,32.6066,34.1227,34.1229,2.0,1.04998,35.1729,37.6402,3.51778,37.6408,42.6455
4,1.5,1,5,25,11,4,2,1.0,3.0,43.6407,44.6391,44.6559,44.6562,46.1731,46.1732,2.0,0.933014,47.1062,49.6885,3.51572,49.6891,50.6936
5,3,3,0,25,8,5,3,1.0,4.0,51.6905,52.6892,52.7061,52.7063,55.7224,55.7226,3.0,1.31732,57.0399,59.238,3.51581,59.2385,62.2436
6,1.5,1,0,17,3,6,3,1.0,5.0,63.2403,64.239,64.256,64.2562,65.7725,65.7727,2.0,1.31689,67.0895,69.2889,3.51668,69.2895,70.2936
7,3,3,10,23,7,7,2,1.0,6.0,71.2905,72.2892,72.3057,72.306,75.3226,75.3228,3.0,1.43367,76.7564,78.8388,3.51639,78.8393,81.8437
8,4.5,1,4,21,7,8,2,1.0,7.0,82.8404,83.8391,83.8558,83.8562,88.3724,88.3725,2.0,1.70035,90.0729,91.8882,3.51598,91.8886,92.8926
9,4.5,3,1,17,8,9,2,1.0,8.0,93.8904,94.8891,94.9059,94.9062,99.4224,99.4225,2.0,1.31707,100.74,102.938,3.51593,102.939,105.943
10,4.5,5,7,23,0,10,3,1.0,9.0,106.94,107.939,107.956,107.956,112.472,112.473,2.0,1.48336,113.956,115.988,3.51605,115.989,120.992
11,4.5,3,7,15,0,11,3,1.0,10.0,121.99,122.989,123.006,123.006,127.522,127.523,2.0,1.20025,128.723,131.038,3.51582,131.038,134.043
12,1.5,1,6,19,4,12,1,1.0,11.0,135.04,136.039,136.056,136.056,137.572,137.572,3.0,1.71679,139.289,141.089,3.51688,141.089,142.095
13,3,1,0,19,4,13,3,1.0,12.0,143.09,144.089,144.106,144.106,147.121,147.122,3.0,1.20125,148.323,150.637,3.51556,150.637,151.642
14,4.5,3,4,23,1,14,1,1.0,13.0,152.641,153.639,153.656,153.656,158.173,158.173,3.0,1.13324,159.306,161.688,3.51563,161.689,164.693
15,3,1,5,15,7,15,1,1.0,14.0,165.69,166.689,166.706,166.706,169.722,169.722,2.0,1.85033,171.573,173.238,3.51579,173.238,174.243
16,1.5,1,1,21,7,16,2,1.0,15.0,175.24,176.239,176.256,176.256,177.772,177.772,2.0,0.983453,178.756,181.288,3.51632,181.289,182.294
17,3,1,9,19,0,17,3,1.0,16.0,183.29,184.289,184.306,184.306,187.322,187.322,3.0,1.93371,189.256,190.838,3.51615,190.839,191.843
18,3,1,5,25,2,18,1,1.0,17.0,192.84,193.839,193.856,193.856,196.872,196.872,3.0,1.5838,198.456,200.388,3.51626,200.389,201.392
19,3,3,7,21,1,19,1,1.0,18.0,202.39,203.389,203.406,203.406,206.422,206.422,3.0,1.35021,207.772,209.938,3.51574,209.938,212.943
20,4.5,3,0,25,11,20,3,1.0,19.0,213.94,214.939,214.955,214.956,219.472,219.472,3.0,1.2504,220.723,222.988,3.51579,222.988,225.992
21,1.5,5,4,21,9,21,2,1.0,20.0,226.99,227.989,228.005,228.006,229.522,229.522,2.0,1.25023,230.772,233.038,3.51599,233.038,238.043
22,1.5,1,5,25,2,22,1,1.0,21.0,239.04,240.038,240.055,240.056,241.572,241.572,3.0,1.28388,242.856,245.088,3.51649,245.089,246.093
23,1.5,8,1,15,3,23,1,1.0,22.0,247.09,248.088,248.105,248.106,249.622,249.622,2.0,1.484,251.106,253.137,3.51527,253.137,261.142
24,1.5,1,1,23,7,24,2,1.0,23.0,262.14,263.139,263.155,263.156,264.673,264.673,2.0,0.682893,265.356,268.189,3.51609,268.189,269.194
25,1.5,1,9,19,6,25,2,1.0,24.0,270.19,271.188,271.205,271.206,272.722,272.722,3.0,1.03348,273.755,276.238,3.51623,276.238,277.244
26,1.5,1,8,17,3,26,2,1.0,25.0,278.239,279.238,279.255,279.256,280.772,280.772,3.0,0.966562,281.739,284.288,3.51667,284.289,285.292
27,3,3,4,19,9,27,2,1.0,26.0,286.289,287.288,287.305,287.306,290.322,290.322,2.0,0.733955,291.056,293.838,3.51615,293.838,296.844
28,3,3,1,21,7,28,1,1.0,27.0,297.84,298.838,298.855,298.855,301.872,301.872,2.0,1.23349,303.105,305.388,3.51622,305.388,308.393
29,1.5,1,11,25,5,29,1,1.0,28.0,309.39,310.388,310.405,310.405,311.922,311.922,3.0,1.6,313.522,315.437,3.51517,315.437,316.441
30,1.5,1,1,19,4,30,1,1.0,29.0,317.439,318.438,318.455,318.455,319.971,319.972,3.0,1.20055,321.172,323.487,3.51597,323.488,324.492
31,1.5,8,1,21,9,31,2,1.0,30.0,325.489,326.488,326.505,326.505,328.021,328.022,2.0,0.900436,328.922,331.537,3.5159,331.538,339.542
32,1.5,5,10,23,0,32,3,1.0,31.0,340.539,341.538,341.555,341.556,343.072,343.073,2.0,1.21591,344.289,346.589,3.51722,346.59,351.594
33,1.5,1,0,21,1,33,3,1.0,32.0,352.589,353.588,353.605,353.605,355.121,355.122,2.0,1.60049,356.722,358.637,3.51582,358.637,359.643
34,1.5,1,3,15,0,34,3,1.0,33.0,360.639,361.638,361.655,361.655,363.172,363.172,3.0,1.66621,364.838,366.688,3.51682,366.689,367.693
35,1.5,5,1,17,3,35,2,1.0,34.0,368.689,369.688,369.705,369.705,371.222,371.222,3.0,1.36602,372.588,374.738,3.51601,374.739,379.743
36,1.5,1,0,19,4,36,3,1.0,35.0,380.739,381.738,381.755,381.755,383.271,383.272,2.0,2.21668,385.488,386.788,3.51708,386.789,387.793
