TrialNumber,Trialn,Blockn,BlockType,Partner,Feedback,ITI,ran,order,studyStart,InitFixOnset,decision_onset,resp,resp_onset,rt,outcome_val,outcome_onset,outcome_offset,trialDuration,ITIonset,ITIoffset
1,1,1,2,1,3,0.750000,1.0,0.0,2.6000016e-06,0.009361,4.0169487,3.0,5.9456387,1.9286898,9.0,6.534445,7.543104,3.5261557,7.543301,8.295211
2,2,1,2,1,3,0.750000,1.0,1.0,--,--,8.296823,3.0,10.028906,1.7320825,9.0,10.813233,11.818428,3.521605,11.818574,12.57846
3,3,1,2,1,2,0.750000,1.0,2.0,--,--,12.580018,3.0,13.845664,1.2656457,5.0,15.097217,16.10373,3.5237114,16.103886,16.862013
4,4,1,2,1,3,0.750000,1.0,3.0,--,--,16.863665,3.0,18.17904,1.3153763,7.0,19.380209,20.38595,3.5222855,20.386108,21.145403
5,5,1,2,1,3,0.750000,1.0,4.0,--,--,21.147034,3.0,21.928576,0.7815426,9.0,23.665144,24.669968,3.5229342,24.670109,25.428558
6,6,1,2,1,3,0.750000,1.0,5.0,--,--,25.430138,3.0,26.361507,0.9313705,7.0,27.948206,28.952425,3.5222888,28.952576,29.711735
7,7,1,2,1,3,0.750000,1.0,6.0,--,--,29.713345,3.0,30.67916,0.9658151,7.0,32.2292,33.23303,3.5196838,33.233185,33.995415
8,8,1,2,1,1,8,1.0,7.0,--,--,33.997086,3.0,34.512104,0.5150151,3.0,36.514206,37.52096,3.5238764,37.521122,45.528427
9,9,2,4,2,3,0.750000,1.0,8.0,--,--,45.712734,2.0,46.895905,1.1831684,4.0,48.23038,49.23672,3.5239844,49.236877,49.995247
10,10,2,4,2,3,0.750000,1.0,9.0,--,--,50.171787,2.0,51.09548,0.9236921,3.0,52.688206,53.69294,3.5211518,53.6931,54.44554
11,11,2,4,2,2,0.750000,1.0,10.0,--,--,54.62188,2.0,55.27867,0.6567922,5.0,57.140213,58.14661,3.5247314,58.146782,58.911747
12,12,2,4,2,3,0.750000,1.0,11.0,--,--,59.086063,3.0,59.8121,0.7260372,8.0,61.603195,62.60897,3.5229063,62.60913,63.36212
13,13,2,4,2,3,0.750000,1.0,12.0,--,--,63.538692,3.0,64.4121,0.8734069,7.0,66.05723,67.061615,3.5229185,67.06181,67.8119
14,14,2,4,2,3,0.750000,1.0,13.0,--,--,67.98525,3.0,68.86203,0.8767732,6.0,70.50215,71.50859,3.5233395,71.50874,72.261826
15,15,2,4,2,3,0.750000,1.0,14.0,--,--,72.43594,3.0,73.57909,1.1431386,7.0,74.95234,75.95634,3.520387,75.95653,76.711914
16,16,2,4,2,2,12,1.0,15.0,--,--,76.88549,2.0,78.86229,1.9767967,5.0,79.40423,80.40995,3.5244572,80.41009,92.41196
17,17,3,2,1,3,0.750000,1.0,16.0,--,--,92.41652,2.0,93.72857,1.3120533,4.0,94.933235,95.93797,3.521452,95.93813,96.6953
18,18,3,2,1,3,0.750000,1.0,17.0,--,--,96.69701,3.0,97.49571,0.7987089,6.0,99.21426,100.21864,3.521635,100.218796,100.978775
19,19,3,2,1,3,0.750000,1.0,18.0,--,--,100.980484,2.0,101.478584,0.4981026,4.0,103.49732,104.501976,3.5214934,104.50212,105.26185
20,20,3,2,1,1,0.750000,1.0,19.0,--,--,105.263504,0.0,999.0,999.0,999.0,107.77938,108.79449,3.5309834,108.794655,109.545204
21,21,3,2,1,3,0.750000,1.0,20.0,--,--,109.54687,2.0,110.04548,0.4986074,4.0,112.063194,113.067955,3.5210876,113.0681,113.82876
22,22,3,2,1,1,0.750000,1.0,21.0,--,--,113.83036,2.0,114.378876,0.5485122,8.0,116.34728,117.35272,3.522361,117.35288,118.11171
23,23,3,2,1,3,0.750000,1.0,22.0,--,--,118.11334,3.0,118.72884,0.6155043,7.0,120.63022,121.63496,3.5216148,121.63511,122.39535
24,24,3,2,1,3,12,1.0,23.0,--,--,122.396965,3.0,123.745575,1.3486108,9.0,124.9152,125.919945,3.5229769,125.920105,137.92859
25,25,4,3,2,1,0.750000,1.0,24.0,--,--,138.10664,2.0,139.42888,1.3222299,6.0,140.62422,141.62999,3.5233479,141.63016,142.39543
26,26,4,3,2,1,0.750000,1.0,25.0,--,--,142.56773,2.0,143.04564,0.4779135,8.0,145.0853,146.08974,3.5220137,146.0899,146.84525
27,27,4,3,2,2,0.750000,1.0,26.0,--,--,147.01733,3.0,147.7626,0.7452662,5.0,149.53314,150.53757,3.5202296,150.53773,151.29503
28,28,4,3,2,1,0.750000,1.0,27.0,--,--,151.46567,3.0,152.01189,0.5462274,4.0,153.98312,154.98712,3.5214484,154.98727,155.74522
29,29,4,3,2,1,0.750000,1.0,28.0,--,--,155.9163,3.0,157.24556,1.3292603,2.0,158.43324,159.43863,3.5223207,159.43877,160.19531
30,30,4,3,2,2,0.750000,1.0,29.0,--,--,160.36578,2.0,161.31206,0.9462674,5.0,162.88318,163.8876,3.5218282,163.88777,164.64548
31,31,4,3,2,1,0.750000,1.0,30.0,--,--,164.81998,2.0,166.44522,1.6252565,9.0,167.33698,168.34236,3.5223916,168.34251,169.09502
32,32,4,3,2,1,10,1.0,31.0,--,--,169.2715,3.0,171.54561,2.2741084,2.0,171.78722,172.7916,3.520098,172.79176,182.7954
33,33,5,1,1,1,0.750000,1.0,32.0,--,--,182.7982,2.0,183.67838,0.8801688,9.0,185.31523,186.31963,3.5214233,186.3198,187.07846
34,34,5,1,1,1,0.750000,1.0,33.0,--,--,187.08011,3.0,188.09532,1.0152086,2.0,189.59615,190.59966,3.51955,190.59982,191.3618
35,35,5,1,1,2,0.750000,1.0,34.0,--,--,191.36343,2.0,192.04472,0.6812917,5.0,193.88057,194.88597,3.5225337,194.88612,195.64531
36,36,5,1,1,1,0.750000,1.0,35.0,--,--,195.647,2.0,196.31204,0.6650412,6.0,198.1632,199.16766,3.5206628,199.16782,199.92863
37,37,5,1,1,1,0.750000,1.0,36.0,--,--,199.9303,2.0,200.34521,0.4149215,8.0,202.4482,203.45308,3.5227776,203.45323,204.21182
38,38,5,1,1,1,0.750000,1.0,37.0,--,--,204.2135,3.0,204.89502,0.6815248,4.0,206.73198,207.73698,3.5234911,207.73714,208.49565
39,39,5,1,1,1,0.750000,1.0,38.0,--,--,208.49733,3.0,208.97816,0.4808334,2.0,211.01582,212.02199,3.5246494,212.02214,212.7786
40,40,5,1,1,2,12,1.0,39.0,--,--,212.78035,3.0,213.52878,0.7484254,5.0,215.29735,216.30295,3.5226035,216.3031,228.31189
41,41,6,3,2,1,0.750000,1.0,40.0,--,--,228.48596,0.0,999.0,999.0,999.0,230.99498,232.01192,3.5259547,232.01212,232.77856
42,42,6,3,2,3,0.750000,1.0,41.0,--,--,232.95284,2.0,233.39522,0.442389,2.0,235.4702,236.47462,3.5217912,236.47476,237.22856
43,43,6,3,2,1,0.750000,1.0,42.0,--,--,237.39862,3.0,238.1287,0.7300755,2.0,239.91524,240.92097,3.5223522,240.92113,241.67851
44,44,6,3,2,1,0.750000,1.0,43.0,--,--,241.85045,3.0,242.49532,0.644858,2.0,244.36722,245.37102,3.5205612,245.37117,246.12854
45,45,6,3,2,2,0.750000,1.0,44.0,--,--,246.29866,2.0,248.6953,2.3966472,5.0,248.81471,249.81862,3.5199704,249.81877,250.57825
46,46,6,3,2,1,0.750000,1.0,45.0,--,--,250.7481,2.0,251.49495,0.7468562,9.0,253.26523,254.27095,3.5228634,254.2711,255.0287
47,47,6,3,2,1,0.750000,1.0,46.0,--,--,255.20018,3.0,255.67853,0.4783501,2.0,257.71637,258.72076,3.5205886,258.72092,259.47827
48,48,6,3,2,1,10,1.0,47.0,--,--,259.6508,3.0,260.2787,0.6278838,3.0,262.16934,263.17398,3.5232024,263.17413,273.17856
49,49,7,6,3,3,0.750000,1.0,48.0,--,--,273.36826,2.0,274.59515,1.2268984,4.0,275.88617,276.89197,3.5237064,276.89212,277.645
50,50,7,6,3,1,0.750000,1.0,49.0,--,--,277.82373,2.0,278.44525,0.621505,8.0,280.34122,281.347,3.523251,281.34714,282.11185
51,51,7,6,3,3,0.750000,1.0,50.0,--,--,282.29077,2.0,282.6949,0.4041009,1.0,284.80722,285.81363,3.522859,285.81378,286.57858
52,52,7,6,3,2,0.750000,1.0,51.0,--,--,286.75687,3.0,287.37875,0.6218949,5.0,289.27524,290.28137,3.5245187,290.28156,291.04477
53,53,7,6,3,3,0.750000,1.0,52.0,--,--,291.22397,3.0,291.7277,0.5037308,6.0,293.74228,294.748,3.524012,294.74814,295.51135
54,54,7,6,3,3,0.750000,1.0,53.0,--,--,295.6893,3.0,296.21194,0.5226418,8.0,298.20602,299.21045,3.5211408,299.21063,299.96143
55,55,7,6,3,3,0.750000,1.0,54.0,--,--,300.14047,2.0,300.6288,0.4883462,2.0,302.65622,303.65964,3.519181,303.6598,304.41183
56,56,7,6,3,3,8,1.0,55.0,--,--,304.59042,2.0,305.49487,0.9044445,2.0,307.10736,308.11163,3.5212226,308.11182,316.12842
57,57,8,1,1,1,0.750000,1.0,56.0,--,--,316.13184,3.0,317.1615,1.0296621,4.0,318.65024,319.6555,3.5236638,319.65567,320.41177
58,58,8,1,1,1,0.750000,1.0,57.0,--,--,320.4134,2.0,321.36215,0.9487328,6.0,322.93024,323.93472,3.521304,323.93488,324.69482
59,59,8,1,1,3,0.750000,1.0,58.0,--,--,324.6964,2.0,325.2782,0.5817814,1.0,327.21335,328.21896,3.5225482,328.21912,328.97827
60,60,8,1,1,1,0.750000,1.0,59.0,--,--,328.97992,2.0,329.3784,0.3984728,8.0,331.4982,332.5041,3.5241766,332.5042,333.2614
61,61,8,1,1,3,0.750000,1.0,60.0,--,--,333.26297,3.0,333.91174,0.6487667,9.0,335.7802,336.78598,3.5229988,336.78613,337.54468
62,62,8,1,1,1,0.750000,1.0,61.0,--,--,337.54626,2.0,338.54507,0.9988059,7.0,340.0642,341.06998,3.5237086,341.07016,341.82846
63,63,8,1,1,1,0.750000,1.0,62.0,--,--,341.83008,3.0,342.29507,0.4649748,2.0,344.347,345.35202,3.5219195,345.35214,346.11127
64,64,8,1,1,1,10,1.0,63.0,--,--,346.11282,2.0,347.34464,1.2318088,8.0,348.63132,349.63577,3.52293,349.63593,359.6448
65,65,9,5,3,2,0.750000,1.0,64.0,--,--,359.82645,3.0,360.7447,0.918228,5.0,362.3442,363.35,3.5235386,363.35016,364.11118
66,66,9,5,3,1,0.750000,1.0,65.0,--,--,364.29303,2.0,364.69516,0.4021167,9.0,366.80923,367.81363,3.5205867,367.81378,368.57837
67,67,9,5,3,1,0.750000,1.0,66.0,--,--,368.75665,3.0,369.2615,0.504842,2.0,371.27426,372.28064,3.523973,372.28082,373.04456
68,68,9,5,3,1,0.750000,1.0,67.0,--,--,373.22464,3.0,373.8281,0.6034395,3.0,375.74326,376.748,3.523333,376.74814,377.51157
69,69,9,5,3,1,0.750000,1.0,68.0,--,--,377.69016,2.0,378.4943,0.8041314,9.0,380.2072,381.21307,3.522921,381.21323,381.97836
70,70,9,5,3,2,0.750000,1.0,69.0,--,--,382.1574,2.0,382.7283,0.5708897,5.0,384.67422,385.68,3.522557,385.68015,386.4449
71,71,9,5,3,1,0.750000,1.0,70.0,--,--,386.6221,2.0,387.2119,0.5898209,9.0,389.13925,390.14404,3.5219367,390.1442,390.89465
72,72,9,5,3,1,8,1.0,71.0,--,--,391.072,3.0,391.66168,0.5896984,2.0,393.58932,394.593,3.5209823,394.59314,402.59482
