TrialNumber,nTrial,Block,Endowment,ITI,ISI,L_Option,R_Option,ran,order,cue_Onset,endowment_onset,endowment_offset,ISI_onset,ISI_offset,decision_onset,resp,rt,resp_onset,decision_offset,trialDuration,ITIonset,ITIoffset
1,1,1,19,1,4.5,4,9,1.0,0.0,5.00242,6.0013103,6.0179453,6.0181966,10.53505,10.5351925,3.0,1.6494637,12.184656,14.051995,3.5174072,14.052725,15.053997
2,2,1,21,3,1.5,7,9,1.0,1.0,16.052128,17.05131,17.067734,17.067904,18.585014,18.585129,3.0,1.3660862,19.951214,22.101988,3.517414,22.102657,25.105103
3,3,2,25,1,1.5,11,2,1.0,2.0,26.10235,27.101297,27.117943,27.118114,28.633995,28.634106,3.0,1.3167223,29.950829,32.152493,3.5189478,32.153168,33.15496
4,4,3,17,1,1.5,0,5,1.0,3.0,34.152172,35.150967,35.167633,35.1677,36.684948,36.685085,3.0,1.299975,37.98506,40.201992,3.517426,40.202625,41.203636
5,5,1,21,3,3,1,7,1.0,4.0,42.20202,43.20128,43.21791,43.21813,46.23412,46.234234,3.0,1.5843773,47.81861,49.75,3.5163083,49.75066,52.753586
6,6,2,21,1,3,4,9,1.0,5.0,53.751797,54.75122,54.76789,54.768063,57.784973,57.785084,2.0,1.3661282,59.151215,61.30297,3.5184557,61.303654,62.30559
7,7,3,21,3,1.5,9,0,1.0,6.0,63.30186,64.301216,64.31789,64.31802,65.83402,65.83416,2.0,1.2010204,67.03518,69.35046,3.5168433,69.35112,72.35196
8,8,1,25,3,1.5,8,11,1.0,7.0,73.35184,74.350914,74.36749,74.36759,75.883995,75.88411,3.0,2.2507005,78.13481,79.40117,3.517632,79.401855,82.40297
9,9,1,17,3,1.5,8,3,1.0,8.0,83.40233,84.40119,84.41762,84.41785,85.93496,85.935074,3.0,2.4163861,88.35146,89.45195,3.5174005,89.45259,92.45463
10,10,1,23,1,1.5,4,1,1.0,9.0,93.45165,94.45086,94.46758,94.46771,95.9843,95.98442,2.0,1.1167002,97.10112,99.50119,3.5173216,99.501854,100.504074
11,11,3,15,5,4.5,0,5,1.0,10.0,101.50179,102.500786,102.51757,102.51766,107.03464,107.03478,999.0,999.0,999.0,110.05069,3.5334885,110.56842,115.56995
12,12,2,25,3,3,11,2,1.0,11.0,116.56826,117.567474,117.58416,117.58431,120.60093,120.60104,3.0,0.8668923,121.46793,124.11894,3.5184233,124.119576,127.12195
13,13,1,25,1,3,2,11,1.0,12.0,128.11838,129.1176,129.13419,129.13435,132.15074,132.15085,2.0,1.7166367,133.8675,135.66809,3.5177534,135.66873,136.67093
14,14,2,19,5,1.5,4,1,1.0,13.0,137.66846,138.66745,138.68416,138.6843,140.20094,140.20105,3.0,1.3838454,141.5849,143.71825,3.517715,143.71889,148.72
15,15,3,21,1,4.5,1,0,1.0,14.0,149.71854,150.71721,150.73396,150.73412,155.25098,155.25111,2.0,0.7505644,156.00168,158.7671,3.5165462,158.76778,159.76976
16,16,1,23,3,1.5,7,4,1.0,15.0,160.76845,161.76735,161.78413,161.78427,163.30095,163.30107,2.0,2.1165342,165.4176,166.81793,3.5173886,166.81857,169.8206
17,17,3,25,1,3,5,0,1.0,16.0,170.81842,171.81738,171.83408,171.83414,174.85107,174.85121,2.0,1.6332365,176.48445,178.36752,3.5168686,178.3682,179.37091
18,18,2,19,3,4.5,6,4,1.0,17.0,180.36815,181.36736,181.3841,181.3842,185.9009,185.901,3.0,1.3167361,187.21774,189.41882,3.5183694,189.41948,192.421
19,19,3,25,1,1.5,0,2,1.0,18.0,193.41852,194.4173,194.43407,194.43416,195.95139,195.95154,2.0,1.4998564,197.45139,199.46892,3.517905,199.46956,200.4706
20,20,3,21,1,1.5,0,4,1.0,19.0,201.46823,202.4673,202.48405,202.48412,204.00093,204.00107,3.0,2.033941,206.03502,207.51805,3.5174897,207.51868,208.52075
21,21,1,25,8,1.5,11,5,1.0,20.0,209.51851,210.51732,210.534,210.53413,212.0509,212.05101,2.0,0.916284,212.9673,215.5682,3.5177507,215.56888,223.57
22,22,3,21,1,1.5,1,0,1.0,21.0,224.5681,225.56726,225.58392,225.58398,227.10188,227.10202,3.0,1.882571,228.98459,230.61855,3.5170567,230.61919,231.62189
23,23,1,25,5,1.5,2,5,1.0,22.0,232.61818,233.61723,233.6339,233.634,235.15096,235.15106,3.0,0.9336077,236.08467,238.66801,3.517491,238.66867,243.67
24,24,2,19,1,1.5,4,6,1.0,23.0,244.66805,245.66722,245.68398,245.68408,247.20094,247.20107,2.0,0.8833678,248.08443,250.7181,3.5176067,250.71878,251.72089
25,25,3,23,1,1.5,1,0,1.0,24.0,252.71786,253.71742,253.73427,253.7344,255.25177,255.2519,3.0,1.2826107,256.53452,258.7689,3.5175436,258.76956,259.77188
26,26,1,15,3,3,3,7,1.0,25.0,260.7681,261.76718,261.78397,261.78406,264.801,264.80112,3.0,0.8506168,265.65173,268.31787,3.5173306,268.31857,271.3199
27,27,2,25,1,3,5,2,1.0,26.0,272.31802,273.31717,273.33392,273.33408,276.3509,276.351,3.0,1.0502065,277.4012,279.868,3.517543,279.86865,280.86987
28,28,3,19,1,1.5,4,0,1.0,27.0,281.86816,282.86716,282.88382,282.88388,284.40088,284.401,2.0,1.800375,286.2014,287.91788,3.517383,287.9185,288.91953
29,29,1,21,1,1.5,7,1,1.0,28.0,289.91803,290.91714,290.9338,290.9339,292.45093,292.45105,2.0,1.4833992,293.93445,295.96786,3.5173686,295.96854,296.97125
30,30,2,19,8,1.5,9,6,1.0,29.0,297.96802,298.96713,298.9839,298.984,300.501,300.5011,3.0,1.066244,301.56735,304.01785,3.5173597,304.0186,312.02087
31,31,2,15,5,1.5,5,3,1.0,30.0,313.01788,314.01743,314.03387,314.03406,315.55035,315.55045,3.0,1.7671554,317.31763,319.067,3.5170522,319.06763,324.0696
32,32,2,25,1,4.5,11,2,1.0,31.0,325.06796,326.0671,326.08377,326.08392,330.6009,330.60098,3.0,1.0162961,331.61728,334.11887,3.518397,334.1195,335.12152
33,33,2,25,8,4.5,5,8,1.0,32.0,336.11816,337.1171,337.13373,337.13382,341.65094,341.65106,2.0,1.3661978,343.01724,345.168,3.5174775,345.16867,353.17084
34,34,3,25,3,3,0,5,1.0,33.0,354.16827,355.16708,355.18378,355.18384,358.20087,358.201,3.0,1.6832494,359.88425,361.71786,3.5173771,361.7185,364.71985
35,35,2,21,1,3,1,4,1.0,34.0,365.71783,366.71707,366.73376,366.73386,369.7509,369.751,2.0,0.783376,370.5344,373.268,3.51761,373.26874,374.27118
36,36,3,23,5,3,0,10,1.0,35.0,375.2677,376.26706,376.28372,376.2838,379.3002,379.30032,3.0,1.9506365,381.25098,382.8169,3.517073,382.8175,387.81882
