onset	duration	trial_type	rt	resp	gender
0.696888630511239	3.08919335747487	decision	3.0825575964991	left	B
4.32981893388205	1.01647740771296	loss	NaN	n/a	n/a
11.3629563821596	3.08969023957616	decision	3.08313296546112	right	B
14.9963588140963	1.01650578374392	win	NaN	n/a	n/a
22.0132060156029	3.08941885622335	decision	3.08305025240406	right	B
25.6465372056409	1.01645205041859	loss	NaN	n/a	n/a
32.6631232874643	3.00641207344597	decision	2.83285622386029	left	B
36.2131603121234	1.01635635684943	loss	NaN	n/a	n/a
39.0297000262944	3.00672783207847	decision	2.8338255364215	left	B
42.5798620261776	1.01616315846331	loss	NaN	n/a	n/a
45.3796704578854	3.00683167620446	decision	2.31601641824818	left	B
48.9296800121665	1.00000724493293	win	NaN	n/a	n/a
51.7130572226597	3.0066073849448	decision	2.83263585696113	right	B
55.2630504757981	1.01638986470061	win	NaN	n/a	n/a
60.1630666863639	3.08928603233653	decision	3.08265027136076	left	B
63.7964353085845	1.01635243251803	loss	NaN	n/a	n/a
69.1464597753657	3.00686850462807	decision	1.81625987839652	left	B
72.6963615611312	1.00022157441708	win	NaN	n/a	n/a
75.4797309229616	3.00690895554726	decision	2.56629074484226	left	B
79.0298521700315	1.01626579510048	win	NaN	n/a	n/a
84.1797252175747	3.08939802701934	decision	3.08303364942549	right	B
87.8131744397397	1.00098168931436	loss	NaN	n/a	n/a
94.8293898221455	3.00792928456212	decision	1.81689773497055	left	B
98.3798352802696	1.01624073970015	loss	NaN	n/a	n/a
105.412702250818	3.00682262002374	decision	2.06646839680616	right	B
108.963038129237	1.01624496589648	win	NaN	n/a	n/a
115.996316853823	3.00717671646271	decision	1.8157805048977	left	B
119.546326408105	1.01643454181612	win	NaN	n/a	n/a
124.462990584318	3.00758786677034	decision	2.0658906128665	left	B
128.013135981193	1.0161293487472	win	NaN	n/a	n/a
130.8127702325	3.00675530245644	decision	1.54942935533472	right	B
134.362444708298	1.00030157060246	win	NaN	n/a	n/a
137.129205045989	3.00795826432295	decision	1.54972519038711	right	B
140.679020798125	1.00012920142035	loss	NaN	n/a	n/a
143.462763576186	3.00612106837798	decision	2.31616675076657	left	B
147.012504463957	1.01652540543	loss	NaN	n/a	n/a
156.129348133545	3.00639697982115	decision	2.83273487113183	left	B
159.679706954281	1.01624647525023	loss	NaN	n/a	n/a
164.596052353154	3.00707740039797	decision	1.54938588570803	right	B
168.145874444599	1.01640978828073	win	NaN	n/a	n/a
170.945812077756	3.00717339586117	decision	1.29981190324179	right	B
174.495945399744	1.0162639838527	loss	NaN	n/a	n/a
181.51227005996	3.00673568077036	decision	2.06630900816526	right	B
185.062717329332	1.01623772096355	loss	NaN	n/a	n/a
187.862289696786	3.0069578588882	decision	2.06769098035875	right	B
191.412926542049	1.01617342213285	win	NaN	n/a	n/a
194.212445478071	3.00664874148788	decision	2.06637753319228	left	B
197.762457749195	1.01654261216754	win	NaN	n/a	n/a
204.79604106312	3.00729233361199	decision	2.56561726736254	right	B
208.345791308937	1.01628662427538	loss	NaN	n/a	n/a
215.379044978123	3.00653825612972	decision	2.56605951051461	right	B
218.92902464699	1.01690878349473	loss	NaN	n/a	n/a
223.862413464492	3.00740463018883	decision	2.06629482013523	left	B
227.412306797836	1.01654049908393	loss	NaN	n/a	n/a
230.212535737955	3.00720992241986	decision	1.81548889607075	left	B
233.762730943796	1.01605629557162	loss	NaN	n/a	n/a
240.795795640792	3.00676858486258	decision	2.57459706816007	left	B
244.345309218566	1.00027289273567	loss	NaN	n/a	n/a
247.145800787723	3.00741398823448	decision	1.81580374907935	left	B
250.695980899938	1.01618549702107	win	NaN	n/a	n/a
253.495807444007	3.00722290293197	decision	1.54956851855968	left	B
257.045316795557	1.00024813920027	loss	NaN	n/a	n/a
259.829021235841	3.00655757597997	decision	1.55021543128532	left	B
263.378651638253	1.0001811234979	win	NaN	n/a	n/a
268.262374885177	3.00829032406909	decision	1.81596796773374	left	B
271.812099773699	1.01669203906204	win	NaN	n/a	n/a
274.612429237342	3.00643863822916	decision	2.8324305836577	left	B
278.161851347744	1.01675090417848	win	NaN	n/a	n/a
283.078846376215	3.0065717639809	decision	2.56622916285414	right	B
286.628515720164	1.00005071458872	win	NaN	n/a	n/a
293.645397938875	3.00719120635767	decision	1.5497478308389	right	B
297.196035387926	1.01569102989743	win	NaN	n/a	n/a
304.228574524925	3.00742545939283	decision	1.54967840015888	left	B
307.779397927428	1.0159521495807	win	NaN	n/a	n/a
310.611975221109	3.00689778628293	decision	2.06618735354277	right	B
314.161926815868	1.01651483989554	loss	NaN	n/a	n/a
316.995511759917	3.00741610131809	decision	2.31594396883156	right	B
320.545531577838	1.01644631483941	win	NaN	n/a	n/a
325.462037874735	3.00670217291918	decision	2.83235843616421	right	B
329.012224628153	1.0164016377239	loss	NaN	n/a	n/a
336.045424564043	3.00717188650742	decision	2.31637443901855	right	B
339.595226128178	1.01661657090881	win	NaN	n/a	n/a
346.628414291015	3.09007331577595	decision	3.08335363425431	left	B
350.261896115437	1.01640405270155	win	NaN	n/a	n/a
364.128590433626	3.3392077718745	decision	3.33260612250888	right	B
368.011942679266	1.01661506155506	loss	NaN	n/a	n/a
372.928236156062	3.00695121771423	decision	1.81623331361334	right	B
376.478266237653	1.0167273581319	win	NaN	n/a	n/a
381.378979169909	3.00719331944128	decision	2.06565605796641	right	B
384.928314642922	1.01671226450708	loss	NaN	n/a	n/a
389.845672823983	3.08900378155522	decision	3.08232304159901	left	B
393.478391816607	1.01665883307578	loss	NaN	n/a	n/a
400.511567602691	3.00698744240799	decision	1.81625716155395	left	B
404.061897141801	1.01627937934245	loss	NaN	n/a	n/a
406.878557303105	3.0071142288507	decision	1.81577114685206	right	B
410.428706322447	1.01622202360886	loss	NaN	n/a	n/a
417.461748077156	3.00734455755446	decision	2.06599536264548	left	B
421.011860569939	1.01626971946098	win	NaN	n/a	n/a
423.828508656356	3.00768899405375	decision	2.31588600933901	left	B
427.378250751615	1.01675422478002	loss	NaN	n/a	n/a
432.294787537627	3.00686729716836	decision	2.56720994657371	left	B
435.845253221225	1.01619576069061	loss	NaN	n/a	n/a
438.644750120526	3.00773246370954	decision	2.31650303670904	right	B
442.195260783134	1.01631500030635	win	NaN	n/a	n/a
444.994934579707	3.00675862308708	decision	1.81607966055162	right	B
448.544741879421	1.00005494078505	win	NaN	n/a	n/a
451.328315005172	3.00759209296666	decision	2.06598509894684	right	B
454.878084268916	1.00006460072473	win	NaN	n/a	n/a
459.928055636323	3.00677643352537	decision	2.8331593038456	left	B
463.478166317858	1.01652299045236	win	NaN	n/a	n/a
468.411445555656	3.00688510763575	decision	2.83267872285796	left	B
471.961440620042	1.01638986467151	loss	NaN	n/a	n/a
478.994975332491	3.00682684624917	decision	2.06602645551902	left	B
482.545022922714	1.016005581012	loss	NaN	n/a	n/a
487.511674163688	3.0066777212196	decision	2.8327237018384	left	B
491.061290076235	1.01675784724648	loss	NaN	n/a	n/a
493.894737366412	3.00704993002	decision	2.57501667091856	left	B
497.444482782274	1.01644812605809	win	NaN	n/a	n/a
500.244803793466	3.08931169149582	decision	3.08268619418959	right	B
503.877819828631	1.00029311818071	win	NaN	n/a	n/a
