TrialNumber,nTrial,Block,Endowment,ITI,ISI,L_Option,R_Option,ran,order,cue_Onset,endowment_onset,endowment_offset,ISI_onset,ISI_offset,decision_onset,resp,rt,resp_onset,decision_offset,trialDuration,ITIonset,ITIoffset
1,1,3,15,2,2,0,4,1.0,0.0,4.006069,5.01202,6.030212,6.0302806,8.033807,8.034045,3.0,2.6269062,10.660952,11.551287,3.5177126,11.551916,13.554333
2,2,1,25,2,2,11,2,1.0,1.0,13.557722,14.561362,15.571104,15.571262,17.574957,17.575102,999.0,999.0,999.0,20.576468,3.5176475,21.092955,23.09566
3,3,1,23,2,2,4,7,1.0,2.0,23.098806,24.10178,25.110731,25.110872,27.113262,27.113413,999.0,999.0,999.0,30.124186,3.5274475,30.641062,32.643772
4,4,1,25,6,2,8,5,1.0,3.0,32.645336,33.648727,34.657013,34.657146,36.65951,36.659653,999.0,999.0,999.0,39.672985,3.5323777,40.19229,46.195488
5,5,2,23,2,3.5,10,1,1.0,4.0,46.198025,47.202114,48.20974,48.209934,51.713024,51.713173,999.0,999.0,999.0,54.72229,3.525151,55.238525,57.24184
6,6,2,19,2,5,9,4,1.0,5.0,57.244488,58.247837,59.258663,59.258858,64.26162,64.261765,999.0,999.0,999.0,67.27036,3.5245526,67.786514,69.78961
7,7,1,25,2,2,8,5,1.0,6.0,69.792564,70.796074,71.803566,71.803696,73.807014,73.80716,999.0,999.0,999.0,76.820335,3.5285773,77.335945,79.33882
8,8,2,15,4,2,7,5,1.0,7.0,79.34023,80.34411,81.3528,81.35299,83.35564,83.35579,999.0,999.0,999.0,86.36771,3.5279834,86.88397,90.88738
9,9,1,19,6,2,1,9,1.0,8.0,90.89034,91.8935,92.90266,92.90279,94.90612,94.90626,999.0,999.0,999.0,97.91619,3.526821,98.43327,104.436676
10,10,1,17,2,2,5,8,1.0,9.0,104.43925,105.44233,106.45079,106.450935,108.45344,108.45362,999.0,999.0,999.0,111.46494,3.5279994,111.98185,113.985565
11,11,3,19,4,2,0,3,1.0,10.0,113.98705,114.99059,116.0023,116.00239,118.00628,118.006485,999.0,999.0,999.0,121.01404,3.523938,121.530655,125.53377
12,12,1,25,4,3.5,5,11,1.0,11.0,125.53621,126.53945,127.54758,127.547714,131.05067,131.05084,999.0,999.0,999.0,134.06367,3.528996,134.58003,138.58191
13,13,1,25,4,5,2,11,1.0,12.0,138.58418,139.587,140.58984,140.58998,145.59346,145.59361,999.0,999.0,999.0,148.59404,3.517522,149.11133,153.11475
14,14,2,23,2,5,4,7,1.0,13.0,153.11781,154.12047,155.12967,155.12985,160.1325,160.13264,999.0,999.0,999.0,163.14246,3.5265086,163.65935,165.66187
15,15,1,25,2,3.5,5,2,1.0,14.0,165.66507,166.66777,167.67603,167.67616,171.17885,171.17899,999.0,999.0,999.0,174.19112,3.5282898,174.70747,176.71045
16,16,3,25,6,2,0,1,1.0,15.0,176.71333,177.71681,178.72784,178.72792,180.73103,180.73122,999.0,999.0,999.0,183.74022,3.5244584,184.2559,190.25821
17,17,2,23,4,2,1,4,1.0,16.0,190.2607,191.26465,192.27287,192.27306,194.27556,194.27574,999.0,999.0,999.0,197.28871,3.5306208,197.80656,201.8098
18,18,2,25,2,3.5,8,2,1.0,17.0,201.81177,202.81584,203.82462,203.82481,207.32797,207.32816,999.0,999.0,999.0,210.33664,3.5253782,210.85374,212.85696
19,19,2,23,4,2,1,4,1.0,18.0,212.85863,213.862,214.86952,214.8697,216.87253,216.87267,999.0,999.0,999.0,219.88544,3.529642,220.40257,224.40575
20,20,1,17,4,2,8,3,1.0,19.0,224.40894,225.41321,226.42159,226.42177,228.4256,228.42574,999.0,999.0,999.0,231.43454,3.525895,231.95181,235.955
21,21,3,25,2,2,0,1,1.0,20.0,235.95782,236.9609,237.96487,237.96494,239.96849,239.96867,999.0,999.0,999.0,242.9832,3.5318124,243.50069,245.50365
22,22,3,15,2,5,0,7,1.0,21.0,245.50513,246.50912,247.52058,247.52066,252.52374,252.52393,999.0,999.0,999.0,255.53139,3.5252597,256.04938,258.05194
23,23,3,23,8,2,10,0,1.0,22.0,258.0533,259.05707,260.0982,260.09827,262.10117,262.10138,999.0,999.0,999.0,265.11414,3.5297203,265.63135,273.63464
24,24,1,25,2,2,2,8,1.0,23.0,273.63724,274.64062,275.6484,275.64856,277.65173,277.65186,999.0,999.0,999.0,280.66223,3.5272899,281.17935,283.18216
25,25,1,25,4,3.5,8,11,1.0,24.0,283.185,284.1882,285.19177,285.19193,288.6952,288.6954,999.0,999.0,999.0,291.7109,3.5327034,292.2283,296.2317
26,26,3,17,4,2,3,0,1.0,25.0,296.23376,297.23782,298.24905,298.24915,300.25287,300.25305,999.0,999.0,999.0,303.25916,3.5223439,303.77563,307.7784
27,27,2,25,8,3.5,5,2,1.0,26.0,307.78143,308.78406,309.78738,309.78757,313.29004,313.29016,999.0,999.0,999.0,316.29105,3.5181694,316.80853,324.81085
28,28,3,17,2,3.5,0,6,1.0,27.0,324.8139,325.81686,326.8285,326.82855,330.33087,330.3311,999.0,999.0,999.0,333.33966,3.5245376,333.8558,335.85892
29,29,3,21,6,3.5,3,0,1.0,28.0,335.8616,336.8643,337.8753,337.87543,341.3781,341.37842,999.0,999.0,999.0,344.38794,3.527058,344.90567,350.90887
30,30,3,17,2,2,0,4,1.0,29.0,350.91162,351.91467,352.9253,352.92535,354.928,354.92816,999.0,999.0,999.0,357.93646,3.525017,358.4534,360.4562
31,31,3,25,6,3.5,0,9,1.0,30.0,360.45773,361.46158,362.4726,362.47266,365.97516,365.97534,999.0,999.0,999.0,368.98532,3.5272171,369.50275,375.50537
32,32,3,19,2,2,0,1,1.0,31.0,375.508,376.5111,377.52216,377.52222,379.52536,379.52554,999.0,999.0,999.0,382.5342,3.524463,383.0502,385.0532
33,33,2,19,8,3.5,9,6,1.0,32.0,385.05457,386.05817,387.06653,387.0667,390.57043,390.5706,999.0,999.0,999.0,393.58224,3.527919,394.0987,402.10107
34,34,2,15,2,5,1,5,1.0,33.0,402.104,403.10696,404.11493,404.1151,409.11896,409.11908,999.0,999.0,999.0,412.1301,3.5278635,412.64716,414.65054
35,35,2,19,2,5,6,1,1.0,34.0,414.65195,415.65515,416.66415,416.66434,421.6675,421.66766,999.0,999.0,999.0,424.67938,3.5280755,425.19592,427.199
36,36,2,15,4,2,3,7,1.0,35.0,427.2005,428.20364,429.21198,429.21216,431.21454,431.2147,999.0,999.0,999.0,434.22763,3.5293598,434.7443,438.7478
