TrialNumber,Trialn,Blockn,BlockType,Partner,Feedback,ITI,ran,order,studyStart,InitFixOnset,decision_onset,resp,resp_onset,rt,outcome_val,outcome_onset,outcome_offset,trialDuration,ITIonset,ITIoffset
1,1,1,1,1,1,0.750000,1.0,0.0,7.848721e-06,0.0058608614,4.0163217,2.0,5.439764,1.4234421,7.0,6.5340767,7.5499744,3.533653,7.5502386,8.307124
2,2,1,1,1,1,0.750000,1.0,1.0,--,--,8.310453,3.0,9.057558,0.7471054,1.0,10.826976,11.841476,3.531023,11.841705,12.606863
3,3,1,1,1,3,0.750000,1.0,2.0,--,--,12.609781,2.0,13.323834,0.71405303,3.0,15.127576,16.140654,3.5308714,16.140999,16.90659
4,4,1,1,1,1,0.750000,1.0,3.0,--,--,16.908949,2.0,17.573421,0.6644732,6.0,19.426346,20.44504,3.5360916,20.445242,21.206594
5,5,1,1,1,1,0.750000,1.0,4.0,--,--,21.209808,2.0,22.356405,1.146597,8.0,23.727592,24.73964,3.5298302,24.739994,25.49016
6,6,1,1,1,1,0.750000,1.0,5.0,--,--,25.494383,3.0,26.023117,0.5287348,1.0,28.013561,29.02853,3.5341482,29.029009,29.790335
7,7,1,1,1,1,0.750000,1.0,6.0,--,--,29.794794,3.0,30.757019,0.96222454,2.0,32.31221,33.326134,3.5313394,33.326515,34.090202
8,8,1,1,1,2,12,1.0,7.0,--,--,34.09246,2.0,34.673313,0.58085406,5.0,36.610935,37.624172,3.5317147,37.62438,49.640408
9,9,2,3,2,1,0.750000,1.0,8.0,--,--,50.16548,2.0,51.857727,1.6922476,8.0,52.68256,53.69305,3.52757,53.693253,54.457172
10,10,2,3,2,1,0.750000,1.0,9.0,--,--,55.033318,3.0,55.757767,0.72444624,3.0,57.549885,58.557533,3.5242124,58.557735,59.32374
11,11,2,3,2,1,0.750000,1.0,10.0,--,--,59.720158,2.0,60.257458,0.53730196,7.0,62.23764,63.247284,3.527129,63.247475,64.006966
12,12,2,3,2,1,0.750000,1.0,11.0,--,--,64.39665,2.0,64.74982,0.35317162,7.0,66.920654,67.92922,3.5325708,67.92943,68.69066
13,13,2,3,2,3,0.750000,1.0,12.0,--,--,69.07573,2.0,69.857414,0.78168553,1.0,71.59381,72.60349,3.5277624,72.60368,73.35733
14,14,2,3,2,2,0.750000,1.0,13.0,--,--,73.74139,2.0,74.657166,0.9157781,5.0,76.25982,77.27002,3.5286295,77.270226,78.024315
15,15,2,3,2,1,0.750000,1.0,14.0,--,--,78.411705,2.0,79.024315,0.6126135,7.0,80.92982,81.94029,3.5285854,81.94048,82.70698
16,16,2,3,2,1,10,1.0,15.0,--,--,83.08972,3.0,83.65716,0.5674298,4.0,85.60778,86.617836,3.5281112,86.61803,96.62367
17,17,3,2,1,3,0.750000,1.0,16.0,--,--,96.63184,2.0,97.7241,1.0922608,1.0,99.14871,100.15848,3.5266402,100.15867,100.92343
18,18,3,2,1,3,0.750000,1.0,17.0,--,--,100.92577,2.0,101.52412,0.59834427,4.0,103.44269,104.45128,3.5255063,104.45147,105.20703
19,19,3,2,1,1,0.750000,1.0,18.0,--,--,105.20937,2.0,105.857574,0.6482004,9.0,107.72573,108.737404,3.5280244,108.737595,109.49033
20,20,3,2,1,3,0.750000,1.0,19.0,--,--,109.49272,3.0,109.940605,0.4478836,7.0,112.01089,113.02056,3.5278423,113.02076,113.773766
21,21,3,2,1,2,0.750000,1.0,20.0,--,--,113.77606,3.0,114.27417,0.49810982,5.0,116.29429,117.30441,3.5283465,117.30461,118.056915
22,22,3,2,1,3,0.750000,1.0,21.0,--,--,118.059494,2.0,118.55732,0.49782756,3.0,120.57674,121.58735,3.5278559,121.58754,122.34013
23,23,3,2,1,3,0.750000,1.0,22.0,--,--,122.34242,2.0,122.79055,0.44813055,4.0,124.85969,125.868065,3.5256453,125.86829,126.62356
24,24,3,2,1,3,10,1.0,23.0,--,--,126.62587,2.0,127.40738,0.78150445,4.0,129.14374,130.15236,3.5264874,130.15256,140.15688
25,25,4,6,3,3,0.750000,1.0,24.0,--,--,140.1847,3.0,141.09064,0.9059376,6.0,142.70264,143.71031,3.5256107,143.7105,144.47363
26,26,4,6,3,2,0.750000,1.0,25.0,--,--,144.49751,3.0,145.2238,0.7262943,5.0,147.01566,148.02612,3.5286152,148.02632,148.79015
27,27,4,6,3,3,0.750000,1.0,26.0,--,--,148.80936,3.0,149.30722,0.4978647,9.0,151.3271,152.33711,3.5277681,152.33731,153.09077
28,28,4,6,3,3,0.750000,1.0,27.0,--,--,153.11276,2.0,153.62389,0.5111178,4.0,155.63058,156.63902,3.526255,156.63922,157.39009
29,29,4,6,3,3,0.750000,1.0,28.0,--,--,157.40967,3.0,157.9071,0.49744058,9.0,159.92714,160.93614,3.526484,160.93634,161.69034
30,30,4,6,3,3,0.750000,1.0,29.0,--,--,161.70978,2.0,162.09038,0.38060582,1.0,164.22725,165.23627,3.5264902,165.23647,165.99025
31,31,4,6,3,3,0.750000,1.0,30.0,--,--,166.00949,2.0,166.37372,0.36421865,1.0,168.52759,169.53606,3.5265546,169.53624,170.29022
32,32,4,6,3,1,12,1.0,31.0,--,--,170.30946,2.0,170.69083,0.38135144,9.0,172.82607,173.83717,3.5277107,173.83737,185.84024
33,33,5,4,2,3,0.750000,1.0,32.0,--,--,186.32394,3.0,187.92351,1.5995666,6.0,188.8414,189.85115,3.5271971,189.85133,190.60675
34,34,5,4,2,2,0.750000,1.0,33.0,--,--,191.09247,3.0,191.70705,0.6145787,5.0,193.6105,194.62018,3.5277176,194.62038,195.37334
35,35,5,4,2,2,0.750000,1.0,34.0,--,--,195.75609,2.0,196.14024,0.38415706,5.0,198.27338,199.28282,3.5267425,199.28305,200.04001
36,36,5,4,2,3,0.750000,1.0,35.0,--,--,200.42145,2.0,201.05702,0.6355782,4.0,202.93901,203.95016,3.5287158,203.95036,204.70665
37,37,5,4,2,3,0.750000,1.0,36.0,--,--,205.08858,2.0,205.49033,0.40176168,1.0,207.6061,208.61467,3.526106,208.61488,209.37318
38,38,5,4,2,3,0.750000,1.0,37.0,--,--,209.75714,2.0,210.44049,0.68334866,4.0,212.27408,213.28316,3.5260098,213.28337,214.04022
39,39,5,4,2,3,0.750000,1.0,38.0,--,--,214.42181,3.0,214.87354,0.4517189,7.0,216.93947,217.94911,3.5272934,217.9493,218.70667
40,40,5,4,2,3,8,1.0,39.0,--,--,219.08797,3.0,219.49019,0.40222564,7.0,221.60425,222.61314,3.5251842,222.61333,230.62323
41,41,6,5,3,1,0.750000,1.0,40.0,--,--,230.64937,2.0,231.30695,0.6575826,6.0,233.16644,234.17654,3.5271716,234.17673,234.94025
42,42,6,5,3,1,0.750000,1.0,41.0,--,--,234.95984,2.0,235.6732,0.71335816,6.0,237.47728,238.48586,3.526019,238.48607,239.23982
43,43,6,5,3,1,0.750000,1.0,42.0,--,--,239.25925,2.0,239.79048,0.5312337,8.0,241.77638,242.7847,3.5254452,242.78493,243.53986
44,44,6,5,3,1,0.750000,1.0,43.0,--,--,243.5591,3.0,244.05698,0.4978798,1.0,246.07654,247.08604,3.5269423,247.08623,247.83972
45,45,6,5,3,1,0.750000,1.0,44.0,--,--,247.85947,2.0,248.29044,0.43096304,8.0,250.37721,251.3857,3.5262334,251.38593,252.13986
46,46,6,5,3,2,0.750000,1.0,45.0,--,--,252.15958,3.0,252.6235,0.4639173,5.0,254.67735,255.68803,3.528445,255.68822,256.4397
47,47,6,5,3,1,0.750000,1.0,46.0,--,--,256.45938,3.0,256.80695,0.34755647,2.0,258.97733,259.987,3.52761,259.98718,260.73996
48,48,6,5,3,3,12,1.0,47.0,--,--,260.76028,2.0,261.13998,0.37971377,3.0,263.27814,264.2883,3.528015,264.28848,276.28983
49,49,7,6,3,3,0.750000,1.0,48.0,--,--,276.3134,2.0,278.14005,1.8266646,2.0,278.83133,279.83997,3.5265799,279.84015,280.6066
50,50,7,6,3,2,0.750000,1.0,49.0,--,--,280.6263,2.0,281.24026,0.6139759,5.0,283.1443,284.15494,3.5286424,284.15515,284.90634
51,51,7,6,3,3,0.750000,1.0,50.0,--,--,284.92575,2.0,285.3065,0.380745,3.0,287.44443,288.45398,3.5282385,288.4542,289.20642
52,52,7,6,3,3,0.750000,1.0,51.0,--,--,289.2264,3.0,289.82376,0.5973454,6.0,291.74374,292.7524,3.5259817,292.7526,293.50626
53,53,7,6,3,1,0.750000,1.0,52.0,--,--,293.52554,3.0,295.3899,1.8643574,1.0,296.04227,297.05273,3.5271983,297.05298,297.80643
54,54,7,6,3,3,0.750000,1.0,53.0,--,--,297.8259,3.0,298.87323,1.0473434,9.0,300.344,301.3549,3.5289948,301.35507,302.1065
55,55,7,6,3,3,0.750000,1.0,54.0,--,--,302.12598,2.0,303.10712,0.98114294,2.0,304.64166,305.65088,3.5249162,305.6511,306.40637
56,56,7,6,3,3,8,1.0,55.0,--,--,306.42596,3.0,307.0069,0.58091956,9.0,308.94388,309.95276,3.5267978,309.95297,317.95636
57,57,8,4,2,3,0.750000,1.0,56.0,--,--,318.52417,2.0,319.40643,0.88226384,1.0,321.04086,322.0496,3.5254257,322.0498,322.80627
58,58,8,4,2,3,0.750000,1.0,57.0,--,--,323.36746,2.0,323.77316,0.4056975,1.0,325.88623,326.89484,3.527372,326.89505,327.65634
59,59,8,4,2,3,0.750000,1.0,58.0,--,--,328.04163,2.0,328.3733,0.33169124,2.0,330.55914,331.5676,3.5259972,331.5678,332.32312
60,60,8,4,2,3,0.750000,1.0,59.0,--,--,332.70566,2.0,333.05676,0.3510932,4.0,335.2226,336.23123,3.5255752,336.23145,336.98975
61,61,8,4,2,3,0.750000,1.0,60.0,--,--,337.3727,2.0,337.7402,0.36751148,1.0,339.8901,340.89865,3.5259328,340.89883,341.65665
62,62,8,4,2,3,0.750000,1.0,61.0,--,--,342.037,2.0,342.50693,0.4699318,3.0,344.55475,345.56363,3.5266414,345.56384,346.3232
63,63,8,4,2,2,0.750000,1.0,62.0,--,--,346.7043,2.0,347.1567,0.45238847,5.0,349.2215,350.23178,3.5274627,350.23196,350.9899
64,64,8,4,2,2,8,1.0,63.0,--,--,351.3734,2.0,351.69022,0.31680048,5.0,353.89108,354.90076,3.5273588,354.90097,362.90616
65,65,9,5,3,3,0.750000,1.0,64.0,--,--,362.9318,3.0,363.84015,0.90832996,6.0,365.44873,366.45856,3.5267591,366.45877,367.22296
66,66,9,5,3,2,0.750000,1.0,65.0,--,--,367.24255,3.0,367.8234,0.5808453,5.0,369.76004,370.76965,3.527104,370.76987,371.52325
67,67,9,5,3,1,0.750000,1.0,66.0,--,--,371.54288,3.0,371.95663,0.41376445,1.0,374.06073,375.0707,3.5278442,375.07092,375.82327
68,68,9,5,3,1,0.750000,1.0,67.0,--,--,375.84256,3.0,376.25668,0.41413847,1.0,378.35904,379.3675,3.5249417,379.3677,380.12277
69,69,9,5,3,1,0.750000,1.0,68.0,--,--,380.14243,2.0,380.60626,0.46380952,8.0,382.66028,383.6697,3.5272615,383.6699,384.4228
70,70,9,5,3,1,0.750000,1.0,69.0,--,--,384.44232,3.0,384.75677,0.31445038,3.0,386.95987,387.96866,3.5263605,387.96887,388.72266
71,71,9,5,3,1,0.750000,1.0,70.0,--,--,388.74194,3.0,388.92328,0.18133955,3.0,391.25995,392.26865,3.5267217,392.26886,393.02344
72,72,9,5,3,1,10,1.0,71.0,--,--,393.0429,3.0,393.77347,0.73056793,1.0,395.55988,396.5687,3.525809,396.5689,406.573
