onset	duration	trial_type	rt	resp	gender
0.604769000085071	3.00296929990873	decision	2.0332259000279	left	B
4.15497490018606	1.00005439994857	loss	NaN	n/a	n/a
11.0719239001628	3.30227310000919	decision	3.29910369985737	right	B
14.9217838000041	1.01646880013868	win	NaN	n/a	n/a
21.8551112001296	3.05268580000848	decision	3.04957809997723	left	B
25.4549593999982	1.00007260008715	loss	NaN	n/a	n/a
32.3718591001816	3.00281409989111	decision	2.78415179997683	right	B
35.921777700074	1.00004329998046	loss	NaN	n/a	n/a
38.6385238000657	3.00362739991397	decision	2.03348449990153	left	B
42.1884783999994	1.01648330013268	loss	NaN	n/a	n/a
44.9385051000863	3.0036289000418	decision	1.78270650003105	right	B
48.4878987001721	1.00029789982364	win	NaN	n/a	n/a
51.2218373999931	3.00317040015943	decision	2.03306400007568	right	B
54.7715833000839	1.00009440002032	win	NaN	n/a	n/a
59.5881871001329	3.0023362999782	decision	1.78302860003896	left	B
63.1384104001336	1.01631359988824	loss	NaN	n/a	n/a
67.988360500196	3.00306349992752	decision	2.033513299888	right	B
71.538077800069	1.00006969994865	win	NaN	n/a	n/a
74.254965600092	3.00274579995312	decision	2.03302529989742	right	B
77.8049556000624	1.01655369997025	win	NaN	n/a	n/a
82.6550467000343	3.0027918999549	decision	2.28307130001485	right	B
86.2050034001004	1.01663700002246	loss	NaN	n/a	n/a
93.1551093000453	3.00382390012965	decision	2.53289199993014	right	B
96.7049962000456	1.01636589993723	loss	NaN	n/a	n/a
103.655063500162	3.05206929985434	decision	3.04911919985898	left	B
107.254950700095	1.00004650000483	win	NaN	n/a	n/a
114.188385300105	3.00366940000094	decision	2.28279630001634	left	B
117.738458500011	1.01653160015121	win	NaN	n/a	n/a
122.571866400074	3.00326139992103	decision	2.53279209998436	left	B
126.121710600099	1.0163586998824	win	NaN	n/a	n/a
128.855305300094	3.00365490000695	decision	2.78333949996158	left	B
132.405010899995	1.01625000010245	win	NaN	n/a	n/a
135.138260400156	3.30312329996377	decision	3.29975049989298	right	B
138.988212000113	1.01675539999269	loss	NaN	n/a	n/a
141.721806799993	3.00336039997637	decision	2.53422010014765	left	B
145.271583100082	1.01631770003587	loss	NaN	n/a	n/a
154.304704400012	3.00308679998852	decision	2.78458170010708	right	B
157.854695799993	1.00042400020175	loss	NaN	n/a	n/a
162.671889600111	3.00312680006027	decision	1.53262150008231	left	B
166.22159550013	1.00012229988351	win	NaN	n/a	n/a
168.938295600004	3.00472320010886	decision	1.53270410001278	left	B
172.488004800165	1.0001401999034	loss	NaN	n/a	n/a
179.405034600059	3.00259259995073	decision	1.03208049992099	left	B
182.954607600113	1.00030439998955	loss	NaN	n/a	n/a
185.671670100186	3.00336679979227	decision	1.03234259993769	left	B
189.221659500152	1.01611259998754	win	NaN	n/a	n/a
191.955024500145	3.00301770004444	decision	2.03202789998613	right	B
195.504940200131	1.0000678000506	win	NaN	n/a	n/a
202.421346700052	3.00408890005201	decision	2.03277339995839	right	B
205.971539500169	1.01666989992373	loss	NaN	n/a	n/a
212.921618400142	3.00394369987771	decision	1.53343169996515	left	B
216.471384500153	1.01663720002398	loss	NaN	n/a	n/a
221.321637400193	3.00406649988145	decision	1.78228079993278	right	B
224.871093800059	1.00055509991944	loss	NaN	n/a	n/a
227.588121799985	3.00399590004236	decision	1.03295280016027	left	B
231.137702600099	1.00028240005486	loss	NaN	n/a	n/a
238.071165400092	3.00383639987558	decision	1.282697299961	left	B
241.621518000029	1.00008890009485	loss	NaN	n/a	n/a
244.354939199984	3.00294140004553	decision	2.03315110015683	right	B
247.904847100144	1.01644599996507	win	NaN	n/a	n/a
250.654771500034	3.00324410013855	decision	1.78323630010709	right	B
254.2048504001	1.01660010009073	loss	NaN	n/a	n/a
256.95495699998	3.00508230016567	decision	1.03288070019335	right	B
260.504506800091	1.00030250009149	win	NaN	n/a	n/a
265.321593600092	3.00278969993815	decision	2.78221239987761	right	B
268.871240300126	1.0164691999089	win	NaN	n/a	n/a
271.621427400038	3.00467070005834	decision	1.53360159997828	right	B
275.171473399969	1.00004370021634	win	NaN	n/a	n/a
280.00514670019	3.05234079994261	decision	3.04922819999047	right	B
283.6048016001	1.01663209986873	win	NaN	n/a	n/a
290.555178500013	3.00368069997057	decision	2.03188200015575	right	B
294.104456100147	1.00041399989277	win	NaN	n/a	n/a
301.038199200062	3.00300040002912	decision	2.53313659993	right	B
304.587995600188	1.00004979991354	win	NaN	n/a	n/a
307.337962800171	3.00315639982	decision	1.2824540999718	right	B
310.888516600011	1.01604090002365	loss	NaN	n/a	n/a
313.654844000004	3.00315810018219	decision	1.53218950005248	right	B
317.204710799968	1.01674640015699	win	NaN	n/a	n/a
322.054920300143	3.00282879988663	decision	1.03212499991059	right	B
325.604686500039	1.00006709992886	loss	NaN	n/a	n/a
332.538145400118	3.00291020004079	decision	1.03364789998159	right	B
336.087968999986	1.00002470007166	win	NaN	n/a	n/a
343.021178600146	3.00390939996578	decision	1.03252459992655	right	B
346.571411899989	1.01676700008102	win	NaN	n/a	n/a
359.821252300171	3.00385889993049	decision	1.03370439982973	right	B
363.37108130008	1.00007879990153	loss	NaN	n/a	n/a
368.204529199982	3.00350950006396	decision	1.03353000013158	right	B
371.754150000168	1.00021039997227	win	NaN	n/a	n/a
376.571250800043	3.003771699965	decision	1.53255260013975	right	B
380.121289400151	1.01623109984212	loss	NaN	n/a	n/a
384.971399300033	3.00414910004474	decision	1.53277639998123	right	B
388.521096100099	1.00015099998564	loss	NaN	n/a	n/a
395.454733700026	3.00267260009423	decision	1.53312190016732	left	B
399.004591900157	1.01625789981335	loss	NaN	n/a	n/a
401.754829599988	3.00295060011558	decision	1.03213530010544	right	B
405.304596400121	1.01641899999231	loss	NaN	n/a	n/a
412.255007000174	3.0027799999807	decision	1.2820700998418	left	B
415.804244800005	1.00031270016916	win	NaN	n/a	n/a
418.537930099992	3.00286430004053	decision	1.28228750010021	right	B
422.087607800029	1.00015170010738	loss	NaN	n/a	n/a
426.921259799972	3.00353610003367	decision	1.03287130012177	left	B
430.471066900063	1.00035330001265	loss	NaN	n/a	n/a
433.188028700184	3.00310669979081	decision	1.78200979996473	right	B
436.737875499995	1.01671110000461	win	NaN	n/a	n/a
439.471243600128	3.00294679985382	decision	0.783570899860933	left	B
443.020972399972	1.00004070019349	win	NaN	n/a	n/a
445.754619400017	3.00338140013628	decision	1.53276380011812	right	B
449.304518599994	1.01664460008033	win	NaN	n/a	n/a
454.154270800063	3.00312609993853	decision	1.28262259997427	right	B
457.704493700061	1.00012070010416	win	NaN	n/a	n/a
462.537983400049	3.00270200008526	decision	1.03304979996756	left	B
466.08794730017	1.01641619997099	loss	NaN	n/a	n/a
473.037361399969	3.00366320018657	decision	1.03282280010171	right	B
476.587832299992	1.0000166001264	loss	NaN	n/a	n/a
481.437847800087	3.00318540004082	decision	2.28241960005835	left	B
484.987887000199	1.01654729992151	loss	NaN	n/a	n/a
487.754602800123	3.00343260006048	decision	2.53270850004628	left	B
491.304285800084	1.00012900005095	win	NaN	n/a	n/a
494.037574400194	3.00323249981739	decision	2.0325593999587	right	B
497.587635300122	1.00009980006143	win	NaN	n/a	n/a
