onset	duration	trial_type	rt	resp
0.00032570003531873226	0.6043996999505907	fixation_1	999	999
0.6047690000850707	3.0029692999087274	face	2.033225900027901	2
3.6077756001614034	0.6043996999505907	fixation_2	999	999
4.154974900186062	1.0000543999485672	feedback loss	999	999
5.155031200032681	5.3160403000656515	ITI	999	999
10.476496400078759	0.5953705001156777	fixation_1	999	999
11.071923900162801	3.302273100009188	face	3.299103699857369	3
14.374225500039756	0.5953705001156777	fixation_2	999	999
14.92178380000405	1.0164688001386821	feedback win	999	999
15.938254700042307	5.315805300138891	ITI	999	999
21.25726980017498	0.5977679998613894	fixation_1	999	999
21.855111200129613	3.052685800008476	face	3.049578099977225	2
24.90782460011542	0.5977679998613894	fixation_2	999	999
25.454959399998188	1.000072600087151	feedback loss	999	999
26.455034099984914	5.316996900131926	ITI	999	999
31.775323000038043	0.5964780000504106	fixation_1	999	999
32.37185910018161	3.0028140998911113	face	2.7841517999768257	3
35.374711100012064	0.5964780000504106	fixation_2	999	999
35.92177770007402	1.0000432999804616	feedback loss	999	999
36.92182300006971	1.1172144000884145	ITI	999	999
38.04239690001123	0.5960681000724435	fixation_1	999	999
38.63852380006574	3.0036273999139667	face	2.033484499901533	2
41.64218990015797	0.5960681000724435	fixation_2	999	999
42.18847839999944	1.016483300132677	feedback loss	999	999
43.20496380003169	1.1172080000396818	ITI	999	999
44.325416000094265	0.6129936999641359	fixation_1	999	999
44.93850510008633	3.0036289000418037	face	1.782706500031054	3
47.942171700065956	0.6129936999641359	fixation_2	999	999
48.48789870017208	1.0002978998236358	feedback win	999	999
49.488198600010946	1.117744400165975	ITI	999	999
50.609187100082636	0.6125556998886168	fixation_1	999	999
51.22183739999309	3.0031704001594335	face	2.033064000075683	3
54.22505740006454	0.6125556998886168	fixation_2	999	999
54.771583300083876	1.0000944000203162	feedback win	999	999
55.77167980000377	3.216959899989888	ITI	999	999
58.99190750019625	0.5962179999332875	fixation_1	999	999
59.58818710013293	3.0023362999781966	face	1.7830286000389606	2
62.59056400018744	0.5962179999332875	fixation_2	999	999
63.13841040013358	1.0163135998882353	feedback loss	999	999
64.15472680004314	3.2161064001265913	ITI	999	999
67.3740927001927	0.6142034998629242	fixation_1	999	999
67.988360500196	3.0030634999275208	face	2.033513299888	3
70.99146300018765	0.6142034998629242	fixation_2	999	999
71.538077800069	1.0000696999486536	feedback win	999	999
72.53814970003441	1.1180020000319928	ITI	999	999
73.65942779998295	0.5954698000568897	fixation_1	999	999
74.25496560009196	3.002745799953118	face	2.0330252998974174	3
77.25775190000422	0.5954698000568897	fixation_2	999	999
77.80495560006239	1.0165536999702454	feedback win	999	999
78.82151130004786	3.2175670000724494	ITI	999	999
82.04252460016869	0.6124534998089075	fixation_1	999	999
82.65504670003429	3.0027918999549	face	2.2830713000148535	3
85.65787710016593	0.6124534998089075	fixation_2	999	999
86.2050034001004	1.016637000022456	feedback loss	999	999
87.2216426001396	5.316441299859434	ITI	999	999
92.54170550010167	0.6133083999156952	fixation_1	999	999
93.1551093000453	3.003823900129646	face	2.5328919999301434	3
96.15897250012495	0.6133083999156952	fixation_2	999	999
96.70499620004557	1.0163658999372274	feedback loss	999	999
97.7213642001152	5.316669799853116	ITI	999	999
103.04145640018396	0.6135364999063313	fixation_1	999	999
103.65506350016221	3.052069299854338	face	3.0491191998589784	2
106.70716200000606	0.6135364999063313	fixation_2	999	999
107.25495070009492	1.000046500004828	feedback win	999	999
108.25499960011803	5.316545600071549	ITI	999	999
113.57512050005607	0.6131834001280367	fixation_1	999	999
114.18838530010544	3.0036694000009447	face	2.2827963000163436	2
117.19209360005334	0.6131834001280367	fixation_2	999	999
117.73845850001089	1.016531600151211	feedback win	999	999
118.75499430019408	3.216659599915147	ITI	999	999
121.97506820014678	0.5966967998538166	fixation_1	999	999
122.57186640007421	3.00326139992103	face	2.5327920999843627	2
125.57516640005633	0.5966967998538166	fixation_2	999	999
126.1217106000986	1.016358699882403	feedback win	999	999
127.1380714001134	1.117838399950415	ITI	999	999
128.2593620000407	0.5958698999602348	fixation_1	999	999
128.8553053000942	3.00365490000695	face	2.783339499961585	2
131.85899930004962	0.5958698999602348	fixation_2	999	999
132.40501089999452	1.0162500001024455	feedback win	999	999
133.4212629001122	1.117878899909556	ITI	999	999
134.5426154001616	0.5955695000011474	fixation_1	999	999
135.13826040015556	3.3031232999637723	face	3.29975049989298	3
138.4414131999947	0.5955695000011474	fixation_2	999	999
138.98821200011298	1.0167553999926895	feedback loss	999	999
140.00496950000525	1.117074100067839	ITI	999	999
141.12561220000498	0.5961021999828517	fixation_1	999	999
141.72180679999292	3.0033603999763727	face	2.5342201001476496	2
144.72520670015365	0.5961021999828517	fixation_2	999	999
145.27158310008235	1.01631770003587	feedback loss	999	999
146.28790280013345	7.416137799853459	ITI	999	999
153.70762990019284	0.597013299819082	fixation_1	999	999
154.30470440001227	3.003086799988523	face	2.7845817001070827	3
157.30782860005274	0.597013299819082	fixation_2	999	999
157.85469579999335	1.0004240002017468	feedback loss	999	999
158.85512199997902	3.2167701001744717	ITI	999	999
162.07547929999419	0.5963330999948084	fixation_1	999	999
162.67188960011117	3.003126800060272	face	1.532621500082314	2
165.6750541999936	0.5963330999948084	fixation_2	999	999
166.2215955001302	1.0001222998835146	feedback win	999	999
167.22173480014317	1.1174210000317544	ITI	999	999
168.3427846999839	0.5954311999958009	fixation_1	999	999
168.9382956000045	3.004723200108856	face	1.5327041000127792	2
171.94305680016987	0.5954311999958009	fixation_2	999	999
172.48800480016507	1.0001401999033988	feedback loss	999	999
173.48814709996805	5.316897800192237	ITI	999	999
178.80865120003	0.5962737000081688	fixation_1	999	999
179.40503460005857	3.002592599950731	face	1.032080499920994	2
182.40766430017538	0.5962737000081688	fixation_2	999	999
182.95460760011338	1.0003043999895453	feedback loss	999	999
183.9549141000025	1.1180527000688016	ITI	999	999
185.07668490009382	0.5949039999395609	fixation_1	999	999
185.67167010018602	3.003366799792275	face	1.0323425999376923	2
188.67507540015504	0.5949039999395609	fixation_2	999	999
189.22165950015187	1.0161125999875367	feedback win	999	999
190.2377744000405	1.1172881999518722	ITI	999	999
191.35872740019113	0.596215499797836	fixation_1	999	999
191.95502450014465	3.0030177000444382	face	2.032027899986133	3
194.95808080001734	0.596215499797836	fixation_2	999	999
195.5049402001314	1.0000678000506014	feedback win	999	999
196.50501020019874	5.316045499872416	ITI	999	999
201.82474010018632	0.5965085998177528	fixation_1	999	999
202.4213467000518	3.004088900052011	face	2.032773399958387	3
205.4254731000401	0.5965085998177528	fixation_2	999	999
205.97153950016946	1.016669899923727	feedback loss	999	999
206.98821149999276	5.3168282001279294	ITI	999	999
212.30881600012071	0.6127170000690967	fixation_1	999	999
212.9216184001416	3.003943699877709	face	1.5334316999651492	2
215.92560110008344	0.6127170000690967	fixation_2	999	999
216.47138450015336	1.016637200023979	feedback loss	999	999
217.4880239001941	3.216227099997923	ITI	999	999
220.70820920006372	0.6133087000343949	fixation_1	999	999
221.32163740019314	3.0040664998814464	face	1.7822807999327779	3
224.3257445001509	0.6133087000343949	fixation_2	999	999
224.8710938000586	1.0005550999194384	feedback loss	999	999
225.871667600004	1.1177775000687689	ITI	999	999
226.99321590014733	0.5947874998673797	fixation_1	999	999
227.58812179998495	3.003995900042355	face	1.032952800160274	2
230.5921565000899	0.5947874998673797	fixation_2	999	999
231.13770260009915	1.0002824000548571	feedback loss	999	999
232.13798710005358	5.31606819992885	ITI	999	999
237.4578049001284	0.613288399996236	fixation_1	999	999
238.07116540009156	3.0038363998755813	face	1.2826972999610007	2
241.07503940002061	0.613288399996236	fixation_2	999	999
241.62151800002903	1.0000889000948519	feedback loss	999	999
242.62160900002345	1.1164675001055002	ITI	999	999
243.741970699979	0.6128792001400143	fixation_1	999	999
244.35493919998407	3.002941400045529	face	2.0331511001568288	3
247.3579314001836	0.6128792001400143	fixation_2	999	999
247.90484710014425	1.0164459999650717	feedback win	999	999
248.9212952000089	1.117753400001675	ITI	999	999
250.04286140017211	0.6117703998461366	fixation_1	999	999
250.65477150003426	3.003244100138545	face	1.7832363001070917	3
253.65805440000258	0.6117703998461366	fixation_2	999	999
254.20485040009953	1.0166001000907272	feedback loss	999	999
255.22145249997266	1.1176224001683295	ITI	999	999
256.3430368001573	0.6117899999953806	fixation_1	999	999
256.9549569999799	3.005082300165668	face	1.0328807001933455	3
259.96007660008036	0.6117899999953806	fixation_2	999	999
260.5045068000909	1.0003025000914931	feedback win	999	999
261.50481140008196	3.2172626999672502	ITI	999	999
264.7260948000476	0.5954098999500275	fixation_1	999	999
265.32159360009246	3.0027896999381483	face	2.782212399877608	3
268.32442070008256	0.5954098999500275	fixation_2	999	999
268.8712403001264	1.0164691999088973	feedback win	999	999
269.8877116001677	1.1181965998839587	ITI	999	999
271.00991090014577	0.611332600004971	fixation_1	999	999
271.62142740003765	3.004670700058341	face	1.533601599978283	3
274.6261379001662	0.611332600004971	fixation_2	999	999
275.1714733999688	1.000043700216338	feedback win	999	999
276.1715192999691	3.217519400175661	ITI	999	999
279.39308150019497	0.6116918998304754	fixation_1	999	999
280.0051467001904	3.0523407999426126	face	3.0492281999904662	3
283.057516500121	0.6116918998304754	fixation_2	999	999
283.6048016001005	1.0166320998687297	feedback win	999	999
284.6214358001016	5.316977299982682	ITI	999	999
289.9424480001908	0.612633999902755	fixation_1	999	999
290.5551785000134	3.003680699970573	face	2.031882000155747	3
293.5588973001577	0.612633999902755	fixation_2	999	999
294.1044561001472	1.0004139998927712	feedback win	999	999
295.1048722001724	5.316836999962106	ITI	999	999
300.4257743000053	0.612294299993664	fixation_1	999	999
301.0381992000621	3.003000400029123	face	2.5331365999300033	3
304.04123860015534	0.612294299993664	fixation_2	999	999
304.58799560018815	1.0000497999135405	feedback win	999	999
305.58804760011844	1.1170460998546332	ITI	999	999
306.7092119001318	0.6286279999185354	fixation_1	999	999
307.3379628001712	3.00315639982	face	1.282454099971801	3
310.3411576000508	0.6286279999185354	fixation_2	999	999
310.8885166000109	1.016040900023654	feedback loss	999	999
311.904559600167	1.117523399880156	ITI	999	999
313.0261739001144	0.6285757999867201	fixation_1	999	999
313.65484400000423	3.0031581001821905	face	1.532189500052482	3
316.6580412001349	0.6285757999867201	fixation_2	999	999
317.20471079996787	1.0167464001569897	feedback win	999	999
318.22145930002443	3.2176070001441985	ITI	999	999
321.4432849001605	0.6115093999542296	fixation_1	999	999
322.05492030014284	3.002828799886629	face	1.032124999910593	3
325.05778719997033	0.6115093999542296	fixation_2	999	999
325.60468650003895	1.000067099928856	feedback loss	999	999
326.6047567001078	5.317292999941856	ITI	999	999
331.9262048001401	0.6118451999500394	fixation_1	999	999
332.5381454001181	3.0029102000407875	face	1.0336478999815881	3
335.5410949001089	0.6118451999500394	fixation_2	999	999
336.0879689999856	1.0000247000716627	feedback win	999	999
337.0879958001897	5.317448699846864	ITI	999	999
342.40967290010303	0.6114089998882264	fixation_1	999	999
343.0211786001455	3.003909399965778	face	1.0325245999265462	3
346.0251265000552	0.6114089998882264	fixation_2	999	999
346.57141189998947	1.0167670000810176	feedback win	999	999
347.58818099997006	11.616582000162452	ITI	999	999
359.20901630003937	0.6121368000749499	fixation_1	999	999
359.8212523001712	3.003858899930492	face	1.0337043998297304	3
362.8251489000395	0.6121368000749499	fixation_2	999	999
363.3710813000798	1.0000787999015301	feedback loss	999	999
364.37116220011376	3.2178054000250995	ITI	999	999
367.59319520019926	0.6112342998385429	fixation_1	999	999
368.20452919998206	3.003509500063956	face	1.0335300001315773	3
371.2080773001071	0.6112342998385429	fixation_2	999	999
371.754150000168	1.000210399972275	feedback win	999	999
372.7543627000414	3.2158073999453336	ITI	999	999
375.97450010012835	0.5966205999720842	fixation_1	999	999
376.57125080004334	3.003771699965	face	1.532552600139752	3
379.57506260019727	0.5966205999720842	fixation_2	999	999
380.121289400151	1.0162310998421162	feedback loss	999	999
381.13752250000834	3.217622200027108	ITI	999	999
384.359455200145	0.6116563000250608	fixation_1	999	999
384.9713993000332	3.0041491000447422	face	1.5327763999812305	3
387.9755848001223	0.6116563000250608	fixation_2	999	999
388.5210961000994	1.0001509999856353	feedback loss	999	999
389.5212491999846	5.316804600181058	ITI	999	999
394.8424182999879	0.6122149000875652	fixation_1	999	999
395.4547337000258	3.002672600094229	face	1.5331219001673162	2
398.4574443001766	0.6122149000875652	fixation_2	999	999
399.0045919001568	1.016257899813354	feedback loss	999	999
400.0208517999854	1.117252100026235	ITI	999	999
401.14240650017746	0.6122727999463677	fixation_1	999	999
401.7548295999877	3.0029506001155823	face	1.0321353001054376	3
404.75781730003655	0.6122727999463677	fixation_2	999	999
405.3045964001212	1.016418999992311	feedback loss	999	999
406.3210175000131	5.316926500061527	ITI	999	999
411.6422845001798	0.6126172998920083	fixation_1	999	999
412.2550070001744	3.002779999980703	face	1.2820700998418033	2
415.2578245000914	0.6126172998920083	fixation_2	999	999
415.8042448000051	1.000312700169161	feedback win	999	999
416.80455960007384	1.1174912001006305	ITI	999	999
417.9263867000118	0.6113937001209706	fixation_1	999	999
418.5379300999921	3.002864300040528	face	1.2822875001002103	3
421.540835400112	0.6113937001209706	fixation_2	999	999
422.0876078000292	1.0001517001073807	feedback loss	999	999
423.0877616000362	3.2176866000518203	ITI	999	999
426.3098711001221	0.611255900003016	fixation_1	999	999
426.9212597999722	3.0035361000336707	face	1.0328713001217693	2
429.924833400175	0.611255900003016	fixation_2	999	999
430.4710669000633	1.000353300012648	feedback loss	999	999
431.47142229997553	1.1176267000846565	ITI	999	999
432.59358640015125	0.5943342000246048	fixation_1	999	999
433.1880287001841	3.0031066997908056	face	1.782009799964726	3
436.19117250014096	0.5943342000246048	fixation_2	999	999
436.7378754999954	1.0167111000046134	feedback win	999	999
437.75458870013244	1.1174418998416513	ITI	999	999
438.8768510001246	0.5942507998552173	fixation_1	999	999
439.4712436001282	3.0029467998538166	face	0.7835708998609334	2
442.47422840003856	0.5942507998552173	fixation_2	999	999
443.0209723999724	1.0000407001934946	feedback win	999	999
444.02101520006545	1.118035800056532	ITI	999	999
445.14355910010636	0.6109507998917252	fixation_1	999	999
445.75461940001696	3.003381400136277	face	1.5327638001181185	3
448.7580374001991	0.6109507998917252	fixation_2	999	999
449.3045185999945	1.0166446000803262	feedback win	999	999
450.32116540009156	3.21627110010013	ITI	999	999
453.54217670019716	0.6119488999247551	fixation_1	999	999
454.1542708000634	3.0031260999385267	face	1.2826225999742746	3
457.15743540017866	0.6119488999247551	fixation_2	999	999
457.704493700061	1.000120700104162	feedback win	999	999
458.7046166001819	3.2164705998729914	ITI	999	999
461.92562720016576	0.6122239998076111	fixation_1	999	999
462.5379834000487	3.0027020000852644	face	1.0330497999675572	2
465.5407238001935	0.6122239998076111	fixation_2	999	999
466.0879473001696	1.0164161999709904	feedback loss	999	999
467.10436570015736	5.317258799914271	ITI	999	999
472.4262796000112	0.6109778999816626	fixation_1	999	999
473.0373613999691	3.0036632001865655	face	1.0328228001017123	3
476.0410643001087	0.6109778999816626	fixation_2	999	999
476.58783229999244	1.0000166001264006	feedback loss	999	999
477.5878510000184	3.2162375000771135	ITI	999	999
480.8086836000439	0.6290297000668943	fixation_1	999	999
481.4378478000872	3.0031854000408202	face	2.282419600058347	2
484.4410717000719	0.6290297000668943	fixation_2	999	999
484.9878870001994	1.0165472999215126	feedback loss	999	999
486.0044365001377	1.1176152999978513	ITI	999	999
487.12667850009166	0.6278138998895884	fixation_1	999	999
487.7546028001234	3.003432600060478	face	2.532708500046283	2
490.75807400001213	0.6278138998895884	fixation_2	999	999
491.3042858000845	1.000129000050947	feedback win	999	999
492.304416900035	1.1183645999990404	ITI	999	999
493.427488300018	0.6099801000673324	fixation_1	999	999
494.037574400194	3.0032324998173863	face	2.0325593999587	3
497.0408425000496	0.6099801000673324	fixation_2	999	999
497.5876353001222	1.0000998000614345	feedback win	999	999
498.5877372000832	5.316407399950549	ITI	999	999
