TrialNumber,Trial,ISI,ITI,winlose,face_image_L,face_image_R,ran,order,decision_onset,resp,rt,resp_onset,resp_offset,trialDuration,pre_feedback_fix_onset,pre_feedback_fix_duration,arrow_onset,arrow_offset,ITIonset,ITIoffset,Date_Time
1,1,0.6,5.3,win,M111.jpg,M25.jpg,1.0,0.0,0.65587,999.0,999.0,999.0,3.6906397,3.03528,3.6913247,0.6,4.2970104,5.309118,5.3094583,10.627655,2019-11-26 14:35:01.762468
2,2,0.6,1.1,loss,M109.jpg,M39.jpg,1.0,1.0,10.675893,999.0,999.0,999.0,13.708367,3.0328553,13.708883,0.6,14.314079,15.319127,15.319362,16.424852,2019-11-26 14:35:07.559515
3,3,0.6,1.1,win,M95.jpg,M65.jpg,1.0,2.0,16.466047,999.0,999.0,999.0,19.501104,3.0354297,19.50162,0.6,20.105974,21.115686,21.116014,22.23176,2019-11-26 14:35:13.366470
4,4,0.6,3.2,win,F61.jpg,F13.jpg,1.0,3.0,22.288189,999.0,999.0,999.0,25.32327,3.035437,25.323755,0.6,25.928043,26.937181,26.937418,30.159758,2019-11-26 14:35:21.294632
5,5,0.6,5.3,loss,F115.jpg,F39.jpg,1.0,4.0,30.217718,999.0,999.0,999.0,33.252735,3.0354111,33.253277,0.6,33.85861,34.863205,34.86344,40.168015,2019-11-26 14:35:31.303637
6,6,0.6,3.2,loss,M33.jpg,M113.jpg,1.0,5.0,40.211926,999.0,999.0,999.0,43.247406,3.035851,43.247925,0.6,43.85256,44.858055,44.85829,48.06338,2019-11-26 14:35:39.198222
7,7,0.6,3.2,win,M101.jpg,M97.jpg,1.0,6.0,48.104973,999.0,999.0,999.0,51.13837,3.0337741,51.13888,0.6,51.7438,52.75274,52.75301,55.97247,2019-11-26 14:35:47.107171
8,8,0.6,1.1,loss,F07.jpg,F15.jpg,1.0,7.0,56.027966,999.0,999.0,999.0,59.063477,3.0358894,59.06399,0.6,59.67003,60.674934,60.675167,61.780663,2019-11-26 14:35:52.915414
9,9,0.6,1.1,win,F47.jpg,F63.jpg,1.0,8.0,61.84664,999.0,999.0,999.0,64.88026,3.033978,64.880775,0.6,65.4862,66.49593,66.4962,67.611946,2019-11-26 14:35:58.747572
10,10,0.6,1.1,win,F45.jpg,F71.jpg,1.0,9.0,67.67488,999.0,999.0,999.0,70.709564,3.0350788,70.71009,0.6,71.31469,72.32424,72.32451,73.440254,2019-11-26 14:36:04.575087
11,11,0.6,3.2,loss,F05.jpg,F11.jpg,1.0,10.0,73.4948,999.0,999.0,999.0,76.52803,3.0337343,76.52873,0.6,77.133644,78.1385,78.13873,81.34392,2019-11-26 14:36:12.478671
12,12,0.6,1.1,loss,M13.jpg,M27.jpg,1.0,11.0,81.39849,999.0,999.0,999.0,84.43101,3.0328898,84.43151,0.6,85.036446,86.04135,86.04158,87.14768,2019-11-26 14:36:18.282425
13,13,0.6,5.3,win,M29.jpg,M87.jpg,1.0,12.0,87.1999,999.0,999.0,999.0,90.23494,3.0354173,90.23545,0.6,90.840515,91.84963,91.84989,97.174095,2019-11-26 14:36:28.308910
14,14,0.6,1.1,win,M35.jpg,M03.jpg,1.0,13.0,97.22487,999.0,999.0,999.0,100.258415,3.0339878,100.25905,0.6,100.864525,101.87352,101.87377,102.98222,2019-11-26 14:36:34.116909
15,15,0.6,5.3,win,F73.jpg,F55.jpg,1.0,14.0,103.03456,999.0,999.0,999.0,106.06743,3.033238,106.06794,0.6,106.67291,107.68206,107.68232,112.99374,2019-11-26 14:36:44.128601
16,16,0.6,3.2,win,M77.jpg,M59.jpg,1.0,15.0,113.04086,999.0,999.0,999.0,116.0735,3.033013,116.07401,0.6,116.6791,117.687996,117.68826,120.902824,2019-11-26 14:36:52.037543
17,17,0.6,3.2,win,F41.jpg,F87.jpg,1.0,16.0,120.96819,999.0,999.0,999.0,124.00318,3.0353682,124.0037,0.6,124.60841,125.618256,125.618546,128.82895,2019-11-26 14:36:59.963678
18,18,0.6,3.2,win,M117.jpg,M67.jpg,1.0,17.0,128.88094,999.0,999.0,999.0,131.91405,3.0334756,131.91457,0.6,132.51959,133.52893,133.52922,136.73929,2019-11-26 14:37:07.874155
19,19,0.6,11.6,win,F57.jpg,F31.jpg,1.0,18.0,136.80295,999.0,999.0,999.0,139.83604,3.033493,139.83658,0.6,140.44238,141.45197,141.45221,153.06657,2019-11-26 14:37:24.201241
20,20,0.6,5.3,loss,M71.jpg,M31.jpg,1.0,19.0,153.1112,999.0,999.0,999.0,156.14673,3.0358922,156.14725,0.6,156.75156,157.7567,157.75693,163.06157,2019-11-26 14:37:34.196301
21,21,0.6,5.3,win,M21.jpg,M19.jpg,1.0,20.0,163.11417,999.0,999.0,999.0,166.14691,3.0331216,166.14743,0.6,166.7525,167.76118,167.76146,173.07748,2019-11-26 14:37:44.212138
22,22,0.6,3.2,loss,M09.jpg,M83.jpg,1.0,21.0,173.12816,999.0,999.0,999.0,176.16165,3.0338712,176.16219,0.6,176.76724,177.7718,177.77205,180.97693,2019-11-26 14:37:52.111695
23,23,0.6,1.1,loss,M91.jpg,M17.jpg,1.0,22.0,181.02876,999.0,999.0,999.0,184.06241,3.0340314,184.06294,0.6,184.66867,185.67401,185.67424,186.78004,2019-11-26 14:37:57.914782
24,24,0.6,1.1,loss,F59.jpg,F89.jpg,1.0,23.0,186.8348,999.0,999.0,999.0,189.8678,3.0333927,189.86832,0.6,190.4735,191.47867,191.47891,192.5851,2019-11-26 14:38:03.719802
25,25,0.6,5.3,win,F35.jpg,F83.jpg,1.0,24.0,192.64677,999.0,999.0,999.0,195.68077,3.034366,195.6813,0.6,196.2855,197.29417,197.29445,202.60379,2019-11-26 14:38:13.738527
26,26,0.6,5.3,loss,M63.jpg,M115.jpg,1.0,25.0,202.64485,999.0,999.0,999.0,205.67784,3.0335014,205.67854,0.6,206.28278,207.28723,207.28748,212.59215,2019-11-26 14:38:23.727035
27,27,0.6,3.2,win,M73.jpg,M81.jpg,1.0,26.0,212.64095,999.0,999.0,999.0,215.6764,3.0358644,215.67694,0.6,216.28215,217.29164,217.29192,220.50456,2019-11-26 14:38:31.639276
28,28,0.6,1.1,loss,F09.jpg,F105.jpg,1.0,27.0,220.56113,999.0,999.0,999.0,223.59311,3.0323782,223.59364,0.6,224.19922,225.20416,225.20439,226.31006,2019-11-26 14:38:37.444924
29,29,0.6,3.2,win,F117.jpg,F37.jpg,1.0,28.0,226.37253,999.0,999.0,999.0,229.40848,3.036298,229.40897,0.6,230.01396,231.02362,231.0239,234.24232,2019-11-26 14:38:45.377222
30,30,0.6,1.1,loss,F19.jpg,F77.jpg,1.0,29.0,234.30482,999.0,999.0,999.0,237.33734,3.0328934,237.33786,0.6,237.94238,238.94719,238.9474,240.05301,2019-11-26 14:38:51.187876
31,31,0.6,1.1,loss,M45.jpg,M105.jpg,1.0,30.0,240.0935,999.0,999.0,999.0,243.12741,3.0342748,243.12791,0.6,243.73354,244.7386,244.73885,245.84406,2019-11-26 14:38:56.978900
32,32,0.6,1.1,loss,M01.jpg,M119.jpg,1.0,31.0,245.89328,999.0,999.0,999.0,248.9276,3.034699,248.92812,0.6,249.53241,250.53703,250.53737,251.64313,2019-11-26 14:39:02.777876
33,33,0.6,5.3,win,M53.jpg,M75.jpg,1.0,32.0,251.69171,999.0,999.0,999.0,254.72571,3.0343847,254.72624,0.6,255.33151,256.3406,256.34085,261.65454,2019-11-26 14:39:12.789399
34,34,0.6,1.1,loss,F21.jpg,F97.jpg,1.0,33.0,261.72058,999.0,999.0,999.0,264.75467,3.0344667,264.7552,0.6,265.36032,266.3653,266.36554,267.4715,2019-11-26 14:39:18.606365
35,35,0.6,3.2,loss,F65.jpg,F23.jpg,1.0,34.0,267.53152,999.0,999.0,999.0,270.5659,3.0347433,270.5664,0.6,271.17175,272.1771,272.1773,275.38162,2019-11-26 14:39:26.517230
36,36,0.6,5.3,win,F93.jpg,F03.jpg,1.0,35.0,275.44882,999.0,999.0,999.0,278.48465,3.036188,278.48514,0.6,279.09064,280.10062,280.10086,285.41898,2019-11-26 14:39:36.553672
37,37,0.6,5.3,loss,M103.jpg,M55.jpg,1.0,36.0,285.4597,999.0,999.0,999.0,288.49466,3.0353417,288.49518,0.6,289.10004,290.10547,290.10568,295.41138,2019-11-26 14:39:46.546067
38,38,0.6,1.1,win,F49.jpg,F113.jpg,1.0,37.0,295.47235,999.0,999.0,999.0,298.50626,3.034259,298.50677,0.6,299.11154,300.12094,300.12122,301.23746,2019-11-26 14:39:52.373048
39,39,0.6,1.1,loss,F91.jpg,F99.jpg,1.0,38.0,301.30017,999.0,999.0,999.0,304.33517,3.0353897,304.3357,0.6,304.94135,305.94635,305.9466,307.05215,2019-11-26 14:39:58.187035
40,40,0.6,5.3,loss,M107.jpg,M11.jpg,1.0,39.0,307.1003,999.0,999.0,999.0,310.13382,3.0338778,310.13434,0.6,310.73993,311.7444,311.7446,317.0491,2019-11-26 14:40:08.183837
41,41,0.6,1.1,loss,M93.jpg,M47.jpg,1.0,40.0,317.09802,999.0,999.0,999.0,320.13263,3.034962,320.13315,0.6,320.73816,321.74356,321.74393,322.84906,2019-11-26 14:40:13.983923
42,42,0.6,3.2,loss,F51.jpg,F01.jpg,1.0,41.0,322.9051,999.0,999.0,999.0,325.94034,3.0356667,325.9409,0.6,326.54648,327.551,327.55124,330.7563,2019-11-26 14:40:21.891020
43,43,0.6,7.4,win,F69.jpg,F85.jpg,1.0,42.0,330.8163,999.0,999.0,999.0,333.85092,3.0352266,333.85175,0.6,334.45734,335.46643,335.46664,342.88937,2019-11-26 14:40:34.024051
44,44,0.6,1.1,loss,F101.jpg,F17.jpg,1.0,43.0,342.94742,999.0,999.0,999.0,345.98257,3.0355206,345.98306,0.6,346.5882,347.59335,347.5936,348.69925,2019-11-26 14:40:39.833958
45,45,0.6,1.1,win,M61.jpg,M41.jpg,1.0,44.0,348.74258,999.0,999.0,999.0,351.77505,3.0328405,351.7756,0.6,352.38016,353.38962,353.38983,354.50958,2019-11-26 14:40:45.644291
46,46,0.6,1.1,loss,M69.jpg,M37.jpg,1.0,45.0,354.54828,999.0,999.0,999.0,357.5814,3.0334747,357.5819,0.6,358.18683,359.19116,359.19138,360.2968,2019-11-26 14:40:51.431502
47,47,0.6,3.2,loss,M51.jpg,M85.jpg,1.0,46.0,360.3403,999.0,999.0,999.0,363.37317,3.0332663,363.37372,0.6,363.97852,364.9835,364.98373,368.18863,2019-11-26 14:40:59.323380
48,48,0.6,5.3,loss,F109.jpg,F75.jpg,1.0,47.0,368.2442,999.0,999.0,999.0,371.27728,3.0334623,371.2778,0.6,371.88293,372.8878,372.88803,378.1926,2019-11-26 14:41:09.327341
49,49,0.6,5.3,loss,F103.jpg,F27.jpg,1.0,48.0,378.25787,999.0,999.0,999.0,381.29202,3.0345001,381.2925,0.6,381.89822,382.90298,382.9032,388.2075,2019-11-26 14:41:19.342155
50,50,0.6,5.3,loss,M49.jpg,M07.jpg,1.0,49.0,388.25858,999.0,999.0,999.0,391.29126,3.0330546,391.29178,0.6,391.89664,392.90137,392.90158,398.20615,2019-11-26 14:41:29.340876
51,51,0.6,3.2,win,F119.jpg,F79.jpg,1.0,50.0,398.26147,999.0,999.0,999.0,401.29587,3.0347328,401.29636,0.6,401.90176,402.9106,402.91092,406.13086,2019-11-26 14:41:37.265752
52,52,0.6,1.1,win,F53.jpg,F67.jpg,1.0,51.0,406.19122,999.0,999.0,999.0,409.22406,3.0332286,409.22458,0.6,409.82913,410.83847,410.8387,411.96194,2019-11-26 14:41:43.096810
53,53,0.6,3.2,loss,F95.jpg,F81.jpg,1.0,52.0,412.0184,999.0,999.0,999.0,415.05194,3.0339315,415.05246,0.6,415.65765,416.6631,416.6633,419.86765,2019-11-26 14:41:51.002513
54,54,0.6,3.2,win,M05.jpg,M89.jpg,1.0,53.0,419.92697,999.0,999.0,999.0,422.95987,3.033261,422.9604,0.6,423.56485,424.5743,424.57455,427.78394,2019-11-26 14:41:58.918647
55,55,0.6,1.1,win,F29.jpg,F107.jpg,1.0,54.0,427.84027,999.0,999.0,999.0,430.87354,3.033626,430.87402,0.6,431.4792,432.4881,432.4884,433.6115,2019-11-26 14:42:04.746210
56,56,0.6,1.1,win,F43.jpg,F33.jpg,1.0,55.0,433.67603,999.0,999.0,999.0,436.71024,3.0345795,436.71075,0.6,437.31488,438.32394,438.32422,439.4396,2019-11-26 14:42:10.574369
57,57,0.6,1.1,win,F25.jpg,F111.jpg,1.0,56.0,439.49207,999.0,999.0,999.0,442.52524,3.033547,442.52576,0.6,443.13074,444.1406,444.14087,445.25192,2019-11-26 14:42:16.386674
58,58,0.6,5.3,win,M23.jpg,M15.jpg,1.0,57.0,445.30457,999.0,999.0,999.0,448.33878,3.0346024,448.3393,0.6,448.94513,449.9551,449.95544,455.277,2019-11-26 14:42:26.411710
59,59,0.6,5.3,win,M43.jpg,M99.jpg,1.0,58.0,455.32767,999.0,999.0,999.0,458.3619,3.0346053,458.36243,0.6,458.96732,459.9763,459.97656,465.28757,2019-11-26 14:42:36.422378
60,60,0.6,5.3,loss,M57.jpg,M79.jpg,1.0,59.0,465.33078,999.0,999.0,999.0,468.36456,3.034163,468.36508,0.6,468.96985,469.97427,469.97452,475.28006,2019-11-26 14:42:46.414741
