onset	duration	trial_type	rt	resp	gender
0.6712287703994662	3.0070589947281405	decision	1.800669131334871	left	B
4.224025577073917	1.000954220071435	loss	n/a	n/a	n/a
11.229706522193737	3.006921340711415	decision	1.5506024929927662	right	B
14.782643397920765	1.0009237308986485	win	n/a	n/a	n/a
21.77219195617363	3.0063664983026683	decision	1.5502323968103155	left	B
25.325046118581668	1.0006535548018292	loss	n/a	n/a	n/a
32.33074396871962	3.0070242793299258	decision	1.5506855079438537	right	B
35.8833602553932	1.000862450688146	loss	n/a	n/a	n/a
38.669343272573315	3.006392157636583	decision	1.3002801681868732	left	B
42.22187443112489	1.0011914921924472	loss	n/a	n/a	n/a
44.99101837712806	3.007342453347519	decision	1.5502927714260295	left	B
48.54381458007265	1.0008546019671485	win	n/a	n/a	n/a
51.31296275218483	3.0070734845940024	decision	1.800798031152226	left	B
54.865751408273354	1.0008929399773479	win	n/a	n/a	n/a
59.75312355381902	3.0071048793615773	decision	1.3007571273483336	right	B
63.30616004753392	1.000489033991471	loss	n/a	n/a	n/a
68.21026470325887	3.0065479240147397	decision	2.063021994777955	left	B
71.7632293512579	1.0008558095432818	win	n/a	n/a	n/a
74.54867775167804	3.0068298731930554	decision	2.0675153720658273	left	B
78.10153946094215	1.0007009487599134	win	n/a	n/a	n/a
83.00586901197676	3.0066412026062608	decision	2.318400085903704	right	B
86.55860121781006	1.0006783083081245	loss	n/a	n/a	n/a
93.56437242298853	3.0065443015191704	decision	2.0672693457454443	left	B
97.11724409414455	1.0007109105354175	loss	n/a	n/a	n/a
104.12301650666632	3.0068513061851263	decision	1.5495275238063186	right	B
107.67585648118984	1.0008340746862814	win	n/a	n/a	n/a
114.68211128667463	3.006825043237768	decision	1.299675818765536	left	B
118.23441060690675	1.000783359981142	win	n/a	n/a	n/a
123.12196055543609	3.0072367978282273	decision	1.3001277224393561	left	B
126.67476490896661	1.00075015402399	win	n/a	n/a	n/a
129.4606655149255	3.006438344134949	decision	1.5502680178033188	left	B
133.01353567675687	1.0006257824134082	win	n/a	n/a	n/a
135.7823107340373	3.0066321465419605	decision	1.8004747251980007	right	B
139.33477729174774	1.00124613114167	loss	n/a	n/a	n/a
142.12098158185836	3.0063508009770885	decision	1.300010897568427	left	B
145.67370442964602	1.0008060005493462	loss	n/a	n/a	n/a
154.76484135224018	3.0061717904172838	decision	1.5500503674848005	right	B
158.31748692062683	1.0008084154687822	loss	n/a	n/a	n/a
163.20499581459444	3.0062786533962935	decision	1.8000735362293199	left	B
166.7578599388944	1.0008008686127141	win	n/a	n/a	n/a
169.527020185953	3.0071598201757297	decision	1.2999348256271333	right	B
173.0797294494696	1.000901996041648	loss	n/a	n/a	n/a
180.08555589732714	3.007471654913388	decision	1.5502287743147463	right	B
183.6383361009648	1.0010046329116449	loss	n/a	n/a	n/a
186.42358254850842	3.0067707061534747	decision	1.300599851529114	left	B
189.97677843109705	1.0008153585949913	win	n/a	n/a	n/a
192.762690810021	3.006299784523435	decision	1.3010849612765014	right	B
196.3156400625594	1.0008742237696424	win	n/a	n/a	n/a
203.32116886379663	3.0067864034790546	decision	1.5505707962438464	right	B
206.8739816696616	1.00116462551523	loss	n/a	n/a	n/a
213.88012749899644	3.007813978707418	decision	1.2999345237622038	left	B
217.4326909580268	1.0009678043425083	loss	n/a	n/a	n/a
222.33699424599763	3.0079120873706415	decision	1.3009264779975638	right	B
225.88966939796228	1.0007685682503507	loss	n/a	n/a	n/a
228.6590856332332	3.0071281235432252	decision	1.2998792809667066	left	B
232.21164063969627	1.0008014724589884	loss	n/a	n/a	n/a
239.21761681651697	3.006596525432542	decision	1.3002173786517233	left	B
242.77074628707487	1.000720570445992	loss	n/a	n/a	n/a
245.5727080379147	3.0063906483119354	decision	1.0460657968651503	right	B
249.12547616672236	1.000820490415208	win	n/a	n/a	n/a
251.89478040707763	3.006314878235571	decision	1.5510522834956646	left	B
255.44743050355464	1.0008283391362056	loss	n/a	n/a	n/a
258.21639996708836	3.005743432790041	decision	1.3002732250606641	right	B
261.76967675157357	1.0006152167916298	win	n/a	n/a	n/a
266.656770872185	3.006970847840421	decision	1.0456643059151247	left	B
270.2094819470076	1.000856111291796	win	n/a	n/a	n/a
272.9954266262939	3.007348792743869	decision	1.3000803283648565	right	B
276.5480746097164	1.0008313577855006	win	n/a	n/a	n/a
281.43556599505246	3.0069823189405724	decision	1.5503615983761847	right	B
284.98827918292955	1.000711212400347	win	n/a	n/a	n/a
291.9939094133442	3.006819609552622	decision	1.5506305671297014	left	B
295.5470071872696	1.0009056185372174	win	n/a	n/a	n/a
302.55288072733674	3.0065986386034638	decision	1.300184172578156	left	B
306.10556825599633	1.000975049333647	win	n/a	n/a	n/a
308.9083375168266	3.007300191093236	decision	1.299929391941987	right	B
312.4610984006431	1.0006979299942032	loss	n/a	n/a	n/a
315.26341002213303	3.008260146714747	decision	1.0458710888633505	left	B
318.8161416242365	1.0009071279782802	win	n/a	n/a	n/a
323.70365987624973	3.008152680005878	decision	1.3009838338475674	right	B
327.2565979594365	1.000601934385486	loss	n/a	n/a	n/a
334.2630993949715	3.0066741068148986	decision	1.5494297168916091	left	B
337.81529336154927	1.000701854354702	win	n/a	n/a	n/a
344.8211367143085	3.006321821245365	decision	1.3000585935078561	right	B
348.3735066727968	1.0011024395935237	win	n/a	n/a	n/a
361.71839821431786	3.0071468397509307	decision	1.300178739009425	left	B
365.27126354619395	1.0007350604282692	loss	n/a	n/a	n/a
370.17557166412007	3.0068676073569804	decision	1.2997183828847483	right	B
373.7281625935575	1.000761625240557	win	n/a	n/a	n/a
378.6155993398279	3.0064446835312992	decision	1.300150966621004	left	B
382.16836052550934	1.0007966425037012	loss	n/a	n/a	n/a
387.0557851969497	3.007981518167071	decision	1.2999961058376357	right	B
390.60855483508203	1.0009970860555768	loss	n/a	n/a	n/a
397.61463213921525	3.0065325285540894	decision	1.3001681733876467	left	B
401.1672641233308	1.0011214576661587	loss	n/a	n/a	n/a
403.95306118694134	3.006684974185191	decision	1.300305223558098	left	B
407.50562162708957	1.0010825160425156	loss	n/a	n/a	n/a
414.51177047519013	3.006650560768321	decision	1.3000709703192115	right	B
418.0645567163592	1.000841923407279	win	n/a	n/a	n/a
420.8502961221384	3.0070967288920656	decision	1.5500859884778038	left	B
424.4031409266172	1.000761021510698	loss	n/a	n/a	n/a
429.2905571456067	3.0068108552368358	decision	1.3004232558887452	right	B
432.8434028556803	1.000760719529353	loss	n/a	n/a	n/a
435.6123916389188	3.0077705091098323	decision	1.045809204922989	left	B
439.165119920508	1.00098561483901	win	n/a	n/a	n/a
441.93435774894897	3.007562820450403	decision	1.2999870496569201	right	B
445.4869876198936	1.0007438147440553	win	n/a	n/a	n/a
448.2562314857496	3.0075456138001755	decision	1.2999840308912098	left	B
451.80916866334155	1.0004171882756054	win	n/a	n/a	n/a
456.6964460207382	3.0064881531288847	decision	1.3002122468315065	right	B
460.24914169998374	1.000879657571204	win	n/a	n/a	n/a
465.1367393445689	3.0065461127087474	decision	1.300039877416566	left	B
468.68946973921265	1.001054140040651	loss	n/a	n/a	n/a
475.6954812351614	3.006351706571877	decision	1.0460887391818687	right	B
479.24807518324815	1.0009276552591473	loss	n/a	n/a	n/a
484.16916833724827	3.0066710881656036	decision	1.300446802051738	left	B
487.72153467324097	1.0011600974248722	loss	n/a	n/a	n/a
490.52441592887044	3.006951528019272	decision	1.2997841910691932	left	B
494.07696821854915	1.0007893975125626	win	n/a	n/a	n/a
496.8629150110064	3.007218685466796	decision	1.30084406665992	right	B
500.4155856348807	1.000885091139935	win	n/a	n/a	n/a
