onset	duration	trial_type	rt	resp	gender
0.6020988621748984	3.0054448819719255	decision	1.5492541925050318	left	A
4.151898237410933	0.9999990942887962	win	n/a	n/a	n/a
11.068743411451578	3.0057986774481833	decision	2.061749015469104	left	A
14.618768587708473	1.016526335850358	loss	n/a	n/a	n/a
17.35232888907194	3.005799583159387	decision	2.3168473476544023	left	A
20.902044042013586	1.0165000730194151	win	n/a	n/a	n/a
23.63529824418947	3.006211337633431	decision	1.5496985497884452	left	A
27.185357531998307	1.0165064125321805	win	n/a	n/a	n/a
32.01878676051274	3.0067073148675263	decision	1.7996873804368079	left	A
35.56855383515358	1.0000878451392055	loss	n/a	n/a	n/a
42.50202073715627	3.005223609507084	decision	1.5492264204658568	right	A
46.05186780821532	1.016775079537183	loss	n/a	n/a	n/a
50.88529794244096	3.0053371135145426	decision	1.5494676167145371	left	A
54.43538319133222	1.016364532057196	win	n/a	n/a	n/a
59.26925043715164	3.006164547521621	decision	1.7981876758858562	right	A
62.81855926895514	1.0166473868303	loss	n/a	n/a	n/a
65.55205738451332	3.0059746694751084	decision	1.7989969970658422	left	A
69.10175110446289	1.016686630435288	win	n/a	n/a	n/a
71.85192105872557	3.0054720509797335	decision	1.5492907194420695	right	A
75.4018475227058	1.016589729115367	win	n/a	n/a	n/a
78.13531575305387	3.0051040672697127	decision	1.549169366247952	left	A
81.68501007650048	1.016830321867019	loss	n/a	n/a	n/a
86.51858993899077	3.0048864176496863	decision	1.550042986869812	right	A
90.06841135118157	1.000121956691146	loss	n/a	n/a	n/a
92.78524940134957	3.0060899844393134	decision	1.2993906391784549	left	A
96.33498236443847	1.0000664121471345	win	n/a	n/a	n/a
103.26857363805175	3.006161226890981	decision	1.549760433845222	right	A
106.81886265100911	1.0161169962957501	win	n/a	n/a	n/a
109.55191308958456	3.005238400772214	decision	1.5493903369642794	right	A
113.10152983153239	1.0000902600586414	win	n/a	n/a	n/a
120.03513951925561	3.0050784088671207	decision	1.3001395864412189	right	A
123.58519971277565	1.0164348687976599	win	n/a	n/a	n/a
128.4184801178053	3.006767991464585	decision	1.2999008046463132	left	A
131.96831179363653	1.0165728242136538	win	n/a	n/a	n/a
136.80174766294658	3.0051873847842216	decision	1.29924604203552	left	A
140.35164605267346	1.0166374249383807	win	n/a	n/a	n/a
145.185168559663	3.005396280437708	decision	1.2993553201667964	left	A
148.73484960058704	1.0002279141917825	win	n/a	n/a	n/a
161.95161188067868	3.0065986402332783	decision	1.2996792295016348	left	A
165.50166875356808	1.0166235389187932	loss	n/a	n/a	n/a
172.43507829960436	3.0051276138983667	decision	1.29916453640908	right	A
175.98492386145517	1.0165329771116376	win	n/a	n/a	n/a
182.91831378592178	3.0050409762188792	decision	1.2991183497942984	left	A
186.46823089150712	1.0000018114224076	loss	n/a	n/a	n/a
191.28512834990397	3.0064344219863415	decision	1.2995488210581243	right	A
194.83487157709897	1.016522713471204	loss	n/a	n/a	n/a
197.5684759519063	3.0058979936875403	decision	1.2999955927953124	left	A
201.11830430710688	1.0164550938643515	loss	n/a	n/a	n/a
203.85163005348295	3.005841844715178	decision	1.2997465473599732	right	A
207.40140829747543	1.0000069430097938	win	n/a	n/a	n/a
214.31838056026027	3.0056676641106606	decision	1.2996982475742698	left	A
217.86824091384187	1.0001744823530316	loss	n/a	n/a	n/a
224.78493877407163	3.005363980308175	decision	1.0452902987599373	right	A
228.33477346831933	1.016690252814442	win	n/a	n/a	n/a
233.20156931644306	3.005444278474897	decision	1.0463574198074639	left	A
236.75142453797162	1.0167421754449606	loss	n/a	n/a	n/a
239.48491540877149	3.005199761595577	decision	1.2992964549921453	right	A
243.03464837232605	1.0002064807340503	win	n/a	n/a	n/a
247.85152560519055	3.005017732270062	decision	1.0452039637602866	left	A
251.40141976857558	1.0166175016202033	loss	n/a	n/a	n/a
254.15148376580328	3.006480909883976	decision	1.2996743996627629	right	A
257.701350458432	1.0166679145768285	loss	n/a	n/a	n/a
260.4347673705779	3.0061796410009265	decision	1.2993215103633702	left	A
263.98478077352047	1.0166033138521016	loss	n/a	n/a	n/a
266.7183800167404	3.0057355859316885	decision	1.300087362062186	right	A
270.2680070223287	1.00003471551463	win	n/a	n/a	n/a
277.1850689416751	3.005301794502884	decision	1.299316680058837	left	A
280.73470077710226	1.016554712317884	loss	n/a	n/a	n/a
283.4692119783722	3.0051728948019445	decision	1.2981614130549133	right	A
287.0179877025075	1.0001077689230442	loss	n/a	n/a	n/a
291.8347550542094	3.005414392799139	decision	1.0495083695277572	left	A
295.384757891763	1.016463848296553	win	n/a	n/a	n/a
302.31827701767907	3.0055746878497303	decision	1.2996113086119294	right	A
305.86818144470453	1.0163578907959163	loss	n/a	n/a	n/a
312.8014720529318	3.0051695741713047	decision	1.0451586823910475	left	A
316.35121075157076	1.0168236810714006	win	n/a	n/a	n/a
319.08476592134684	3.0050219581462443	decision	1.2990766917355359	right	A
322.63465797156096	1.0164306424558163	loss	n/a	n/a	n/a
325.36808967543766	3.005616345908493	decision	1.0454312735237181	left	A
328.91787818307057	1.0166661031544209	loss	n/a	n/a	n/a
335.85143081704155	3.0043590455316007	decision	1.0452655456028879	right	A
339.40112936683	1.0166920642368495	loss	n/a	n/a	n/a
342.13478415459394	3.0050008269026875	decision	1.2991521595977247	left	A
345.68459530267864	1.01655108993873	loss	n/a	n/a	n/a
350.5014082370326	3.005343754775822	decision	1.0451749837957323	right	A
354.0511031644419	1.0169199779629707	win	n/a	n/a	n/a
363.0846306825988	3.0055478205904365	decision	1.2995409718714654	left	A
366.6344176810235	1.016702327877283	loss	n/a	n/a	n/a
369.36825178097934	3.0051022567786276	decision	1.798196128103882	right	A
372.91790082352236	1.016519996803254	win	n/a	n/a	n/a
375.65133856469765	3.005548122804612	decision	2.065094371791929	right	A
379.2011291855015	1.0167195349931717	loss	n/a	n/a	n/a
381.93461160408333	3.0050690504722297	decision	1.5490706539712846	left	A
385.48433883162215	1.000057355966419	loss	n/a	n/a	n/a
390.3012242154218	3.0052380990236998	decision	1.7992575131356716	right	A
393.8511072094552	1.0169459395110607	loss	n/a	n/a	n/a
400.7845252081752	3.0051203686743975	decision	1.54912378359586	left	A
404.33426300110295	1.0000286777503788	loss	n/a	n/a	n/a
411.251521137543	3.006073985248804	decision	1.2989248493686318	left	A
414.80097305681556	1.0000181123614311	loss	n/a	n/a	n/a
421.7179700732231	3.005567442625761	decision	1.548630523495376	right	A
425.2676471900195	1.0000872411765158	win	n/a	n/a	n/a
430.08446646342054	3.005460579879582	decision	1.5495228595100343	right	A
433.6344161713496	1.016518789343536	win	n/a	n/a	n/a
436.3681784258224	3.006367104128003	decision	1.2994066388346255	right	A
439.9176445333287	1.0165242231450975	loss	n/a	n/a	n/a
444.7510951948352	3.0052088177762926	decision	1.0451897755265236	left	A
448.3008990981616	1.0166950831189752	win	n/a	n/a	n/a
453.1344427363947	3.0050759934820235	decision	1.0451475130394101	right	A
456.6841675490141	1.0001455028541386	win	n/a	n/a	n/a
459.4010849916376	3.0057727159000933	decision	2.065343416761607	left	A
462.9509812681936	1.0167394578456879	win	n/a	n/a	n/a
465.6845439844765	3.0059293881058693	decision	1.549941255711019	right	A
469.2344146016985	1.016462640836835	win	n/a	n/a	n/a
471.96795165911317	3.0057238126173615	decision	2.3158155460841954	right	A
475.5176580576226	1.00008150562644	win	n/a	n/a	n/a
482.43440783955157	3.0049682250246406	decision	1.2990640131756663	left	A
485.9841664619744	1.016627765726298	win	n/a	n/a	n/a
492.91765630664304	3.0047614416107535	decision	1.045464479830116	left	A
496.46751484880224	1.0000368286855519	loss	n/a	n/a	n/a
