onset	duration	trial_type	rt	resp
0.00042564026080071926	0.604321124847047	fixation_1	999	999
0.6048367231851444	3.0063643794273958	face	1.8002765756100416	3
3.6112472891109064	0.604321124847047	fixation_2	999	999
4.157599823200144	1.0007912080036476	feedback win	999	999
5.158403709880076	5.3171240841038525	ITI	999	999
10.48577153799124	0.5943596316501498	fixation_1	999	999
11.080224146367982	3.005815575248562	face	2.3181106037227437	2
14.08608620997984	0.5943596316501498	fixation_2	999	999
14.632666657795198	1.0010731569491327	feedback loss	999	999
15.63374313537497	1.1171905564842746	ITI	999	999
16.756307627423666	0.5955179167212918	fixation_1	999	999
17.351919124717824	3.005574680864811	face	2.318102755001746	2
20.357546935090795	0.5955179167212918	fixation_2	999	999
20.904789087595418	1.0008310552220792	feedback win	999	999
21.905623463448137	1.1184934384655207	ITI	999	999
23.029300959664397	0.5942102047847584	fixation_1	999	999
23.62359810376074	3.0053648793837056	face	2.8185024342965335	3
26.62901490519289	0.5942102047847584	fixation_2	999	999
27.176705036661588	1.0006897788261995	feedback win	999	999
28.177398136118427	3.216045674518682	ITI	999	999
31.398665904300287	0.5983844987349585	fixation_1	999	999
31.997162699582987	3.005179831641726	face	2.818580619408749	2
35.002397773903795	0.5983844987349585	fixation_2	999	999
35.55017937265802	1.000867581809871	feedback loss	999	999
36.55105027509853	5.316369704552926	ITI	999	999
41.872565095778555	0.6003644809825346	fixation_1	999	999
42.47302708157804	3.0053549176082015	face	2.068066530278884	3
45.47843694000039	0.6003644809825346	fixation_2	999	999
46.025663093314506	1.0006294043269008	feedback loss	999	999
47.02630487433635	3.2165990070207044	ITI	999	999
50.248269968200475	0.580523302196525	fixation_1	999	999
50.82889832207002	3.0056915055029094	face	2.068470737664029	2
53.83463933470193	0.580523302196525	fixation_2	999	999
54.382273317780346	1.0008259234018624	feedback win	999	999
55.38310256181285	3.216769564896822	ITI	999	999
58.60523821366951	0.5976720794569701	fixation_1	999	999
59.20303255144972	3.0053042031358927	face	1.8012534353183582	3
62.20838354481384	0.5976720794569701	fixation_2	999	999
62.75618959532585	1.0003263242542744	feedback loss	999	999
63.756528296275064	1.1188273095758632	ITI	999	999
64.88051370263565	0.610986773041077	fixation_1	999	999
65.49159677303396	3.005784180480987	face	1.800620710477233	3
68.4974280456081	0.610986773041077	fixation_2	999	999
69.04446462297346	1.0007353615947068	feedback win	999	999
70.04521236126311	1.1180439502932131	ITI	999	999
71.16861243662424	0.6109909993829206	fixation_1	999	999
71.7797374674119	3.0055481160525233	face	1.8005488647613674	2
74.78533539245836	0.6109909993829206	fixation_2	999	999
75.3331852145493	1.0004802792100236	feedback win	999	999
76.33367817243561	1.1184704961488023	ITI	999	999
77.45769467158243	1.0777644886402413	fixation_1	999	999
78.53556632506661	3.0049742562696338	face	2.0640202302020043	3
81.54059099406004	1.0777644886402413	fixation_2	999	999
82.08833576436155	1.00070819305256	feedback loss	999	999
83.08904727804475	3.217299351352267	ITI	999	999
86.3116399650462	0.5973200959851965	fixation_1	999	999
86.90905575465877	3.005904929479584	face	1.8005355823552236	3
89.91500928555615	0.5973200959851965	fixation_2	999	999
90.46225807932205	1.0006496297428384	feedback loss	999	999
91.46292099147104	1.1183452190598473	ITI	999	999
92.58668693643995	0.9443724310258403	fixation_1	999	999
93.53120336064603	3.005217263707891	face	1.8001965794246644	2
96.53646922588814	0.9443724310258403	fixation_2	999	999
97.08409385092091	1.0009451630758122	feedback win	999	999
98.08504293835722	5.3164276640163735	ITI	999	999
103.40693600545637	0.6160023859702051	fixation_1	999	999
104.02304585801903	3.0061533706029877	face	1.800840473617427	3
107.02924571698532	0.6160023859702051	fixation_2	999	999
107.57590555737261	1.0007570963352919	feedback win	999	999
108.57667533238418	1.1185076265828684	ITI	999	999
109.70068368094508	0.594186658738181	fixation_1	999	999
110.29499923926778	3.005129720666446	face	1.80114566674456	2
113.30017846706323	0.594186658738181	fixation_2	999	999
113.84776565991342	1.0008485638536513	feedback win	999	999
114.84861784626264	5.316770289442502	ITI	999	999
120.1709782120306	0.5990739756962284	fixation_1	999	999
120.7701587487245	3.0056030568666756	face	2.318730951868929	3
123.77581070899032	0.5990739756962284	fixation_2	999	999
124.32337073329836	1.0005512193311006	feedback win	999	999
125.32392557512503	3.2162002333207056	ITI	999	999
128.54580131464172	0.5977297371719033	fixation_1	999	999
129.1436358016217	3.0054916659137234	face	2.068443267256953	3
132.14917305030394	0.5977297371719033	fixation_2	999	999
132.6966382865794	1.0005732560530305	feedback win	999	999
133.69721486326307	3.217909737606533	ITI	999	999
136.92076659935992	0.5966565801063552	fixation_1	999	999
137.51753487228416	3.00632423046045	face	1.8005594302667305	2
140.5239064968191	0.5966565801063552	fixation_2	999	999
141.07019775069784	1.0008268289966509	feedback win	999	999
142.07103695638943	3.2165769702987745	ITI	999	999
145.29330482846126	0.5976289117243141	fixation_1	999	999
145.8910469423281	3.0059743601595983	face	2.063972534495406	3
148.897067790851	0.5976289117243141	fixation_2	999	999
149.4439781854162	1.0005940853152424	feedback win	999	999
150.4445758931106	11.617433563922532	ITI	999	999
162.06775167724118	0.6036597219062969	fixation_1	999	999
162.67158829653636	3.0059764732141048	face	2.067410259274766	3
165.67761518247426	0.6036597219062969	fixation_2	999	999
166.22405375016388	1.001168548827991	feedback loss	999	999
167.2252256195061	5.316746441530995	ITI	999	999
172.5476584348362	1.0824577015591785	fixation_1	999	999
173.63023930042982	3.0056664501316845	face	2.06470940541476	2
176.6359570688801	1.0824577015591785	fixation_2	999	999
177.1832870662911	1.00081173540093	feedback win	999	999
178.18410212232266	5.3168225133558735	ITI	999	999
183.50692706997506	0.5986613158602268	fixation_1	999	999
184.1057447558269	3.0051719829207286	face	2.068146224715747	3
187.11096534016542	0.5986613158602268	fixation_2	999	999
187.65856581542175	1.000638158642687	feedback loss	999	999
188.65920729469508	3.216950084781274	ITI	999	999
191.88199831196107	0.5970770885469392	fixation_1	999	999
192.47920943191275	3.005658601410687	face	2.5676493424689397	2
195.4849190497771	0.5970770885469392	fixation_2	999	999
196.0323707018979	1.000311532523483	feedback loss	999	999
197.032685555052	1.1181876414921135	ITI	999	999
198.15669511107262	0.5940994175616652	fixation_1	999	999
198.75093640876003	3.0058702140813693	face	2.3177764307474717	2
201.75686065806076	0.5940994175616652	fixation_2	999	999
202.30409828247502	1.0006318192463368	feedback loss	999	999
203.304733422352	1.1176774769555777	ITI	999	999
204.42812564899214	0.5947085963562131	fixation_1	999	999
205.02295167383272	3.005856026080437	face	2.3180127969244495	3
208.02885720704217	0.5947085963562131	fixation_2	999	999
208.5755888930289	1.0008349794661626	feedback win	999	999
209.57642689126078	5.3161230746190995	ITI	999	999
214.8985819837544	0.5991298221051693	fixation_1	999	999
215.49784523353446	3.005995793151669	face	2.568963997415267	2
218.50389143940993	0.5991298221051693	fixation_2	999	999
219.05074236507062	1.0010598745429888	feedback loss	999	999
220.05180525837932	5.31592202745378	ITI	999	999
225.3741438894067	0.599313058773987	fixation_1	999	999
225.97358343272936	3.0054315932793543	face	1.8011628735112026	2
228.97906724992208	0.599313058773987	fixation_2	999	999
229.52616903174203	1.0008416207274422	feedback win	999	999
230.5270139731001	3.2167245858581737	ITI	999	999
233.7496902786661	0.597235269844532	fixation_1	999	999
234.34706531558186	3.0058542147744447	face	2.317635758081451	2
237.35297024506144	0.597235269844532	fixation_2	999	999
237.89979853027035	1.0005566530162469	feedback loss	999	999
238.9003582019359	1.117150105535984	ITI	999	999
240.02360703912564	0.611365019576624	fixation_1	999	999
240.63510729756672	3.005946286022663	face	1.8016193049261346	2
243.64110218500718	0.611365019576624	fixation_2	999	999
244.18846629408654	1.0007263054139912	feedback win	999	999
245.18919561826624	3.217489229165949	ITI	999	999
248.41278931463603	0.5961026439908892	fixation_1	999	999
249.00902870681603	3.0067577195586637	face	2.316904622828588	3
252.0158332166029	0.5961026439908892	fixation_2	999	999
252.56190802785568	1.0005488042952493	feedback loss	999	999
253.56245985091664	1.1172144043957815	ITI	999	999
254.68574068660382	0.6283522949088365	fixation_1	999	999
255.31423063541297	3.0054515169467777	face	2.067476671305485	2
258.3197322631022	0.6283522949088365	fixation_2	999	999
258.86695781268645	1.0009324843995273	feedback loss	999	999
259.8678936177166	1.1183711800258607	ITI	999	999
260.99242873385083	0.5934630702249706	fixation_1	999	999
261.5860364009859	3.0055786052253097	face	1.8005965605843812	2
264.59166390949395	0.5934630702249706	fixation_2	999	999
265.1387847092701	1.0007033630972728	feedback loss	999	999
266.139491392998	1.1178045652341098	ITI	999	999
267.26349521346856	0.5943300481885672	fixation_1	999	999
267.8579595949268	3.0056269047781825	face	1.5504492467734963	2
270.8636323843384	0.5943300481885672	fixation_2	999	999
271.4107758245664	1.000499599147588	feedback win	999	999
272.41128749854397	5.31659942958504	ITI	999	999
277.7340215826407	0.6156657980754972	fixation_1	999	999
278.3498295627069	3.0051789259305224	face	1.8012739627156407	2
281.3550579957664	0.6156657980754972	fixation_2	999	999
281.90260202088393	1.0008123390143737	feedback loss	999	999
282.90341768052895	1.1171410493552685	ITI	999	999
284.02686001802795	0.7780146807199344	fixation_1	999	999
284.8050093338825	3.0054922696435824	face	1.8005434309598058	3
287.81054809188936	0.7780146807199344	fixation_2	999	999
288.358022082597	1.0007166455034167	feedback loss	999	999
289.35874174674973	3.216820581466891	ITI	999	999
292.5818639182253	0.5966740887379274	fixation_1	999	999
293.1786753589986	3.005858742981218	face	2.063875029562041	3
296.1845845145872	0.5966740887379274	fixation_2	999	999
296.7315546799218	1.0007326448103413	feedback win	999	999
297.7322903434979	5.3162051839753985	ITI	999	999
303.05470323504414	0.5991201621945947	fixation_1	999	999
303.65396105113905	3.005441253189929	face	1.8005449404008687	3
306.6594551320886	0.5991201621945947	fixation_2	999	999
307.2069028598489	1.000783963012509	feedback loss	999	999
308.2076991996728	5.316764252027497	ITI	999	999
313.5309289584402	0.8648453084751964	fixation_1	999	999
314.3959255050868	3.0054644973715767	face	2.0675071603618562	3
317.40143649082165	0.8648453084751964	fixation_2	999	999
317.9485895909602	1.0018975710263476	feedback win	999	999
318.9504901806358	1.1163024473935366	ITI	999	999
320.0734317115275	0.6112077438738197	fixation_1	999	999
320.684783448698	3.0061832559295	face	2.06291054666508	2
323.6910180229461	0.6112077438738197	fixation_2	999	999
324.2373355397722	1.000908334623091	feedback loss	999	999
325.23825564736035	1.1175845002289861	ITI	999	999
326.36230263567995	0.5939478775253519	fixation_1	999	999
326.9563963175751	3.0049597665201873	face	2.5680405693128705	3
329.9614055911079	0.5939478775253519	fixation_2	999	999
330.50918718997855	1.000774604966864	feedback loss	999	999
331.50996511557605	5.317200759775005	ITI	999	999
336.83347380463965	0.5980316097848117	fixation_1	999	999
337.43165876565035	3.005641696508974	face	2.317684057750739	3
340.43735027115326	0.5980316097848117	fixation_2	999	999
340.98428330617025	1.000769775127992	feedback loss	999	999
341.98505640181247	1.1182830333709717	ITI	999	999
343.10984448727686	0.5937579995952547	fixation_1	999	999
343.7037464801688	3.005366388708353	face	2.3173827888676897	3
346.7091656966368	0.5937579995952547	fixation_2	999	999
347.2561219758354	1.0008615442784503	feedback loss	999	999
348.2569865388796	3.217335576075129	ITI	999	999
351.4808193183271	0.5961126057663932	fixation_1	999	999
352.07707470981404	3.0067175704753026	face	1.5499514589319006	2
355.0838423911482	0.5961126057663932	fixation_2	999	999
355.62971102341544	1.0009693128522485	feedback win	999	999
356.6306933168089	7.417592711048201	ITI	999	999
364.05478232575115	0.6159350683446974	fixation_1	999	999
364.67087678285316	3.0053135610651225	face	2.0632048724219203	2
367.6762398510473	0.6159350683446974	fixation_2	999	999
368.22359641327057	1.0009768595919013	feedback loss	999	999
369.2245765934931	1.1173402852145955	ITI	999	999
370.34858222526964	0.5940399485407397	fixation_1	999	999
370.9427728082519	3.0054433663608506	face	2.0630306920502335	2
373.9482702097157	0.5940399485407397	fixation_2	999	999
374.49528384476434	1.0009016933618113	feedback win	999	999
375.4961891606217	1.1180587419075891	ITI	999	999
376.6209654730046	0.5933966581942514	fixation_1	999	999
377.214512765524	3.006224612588994	face	1.8007079516537488	2
380.2207853758009	0.5933966581942514	fixation_2	999	999
380.76717141771223	1.0008422244573012	feedback loss	999	999
381.7680260189809	1.1174643548438326	ITI	999	999
382.89239027537405	0.5935355195542797	fixation_1	999	999
383.4860652600182	3.006787604885176	face	1.8008169275708497	3
386.4929044850869	0.5935355195542797	fixation_2	999	999
387.03896993829403	1.0006278950022534	feedback loss	999	999
388.0396011538105	3.2176123932003975	ITI	999	999
391.2639229669003	0.5956392695661634	fixation_1	999	999
391.85970864468254	3.00550917442888	face	1.5514644442591816	3
394.86526642064564	0.5956392695661634	fixation_2	999	999
395.4125170256011	1.0008687892695889	feedback loss	999	999
396.41338913550135	5.316204882110469	ITI	999	999
401.7365419168491	0.6150656753452495	fixation_1	999	999
402.3517672828166	3.005367294419557	face	2.3173861094983295	2
405.35718438611366	0.6150656753452495	fixation_2	999	999
405.90463392517995	1.000701249926351	feedback loss	999	999
406.9053378920071	5.316791118704714	ITI	999	999
412.2289199361112	0.5979048232547939	fixation_1	999	999
412.8269823368173	3.006292835692875	face	2.067982006003149	3
415.83332649082877	0.5979048232547939	fixation_2	999	999
416.37962619715836	1.0008047923911363	feedback loss	999	999
417.3804340081988	5.317619758890942	ITI	999	999
422.70501223183237	0.6138002255465835	fixation_1	999	999
423.3189682236407	3.005174095975235	face	2.06408271798864	2
426.32419212860987	0.6138002255465835	fixation_2	999	999
426.8716757792281	1.0008075090590864	feedback win	999	999
427.8724875145126	3.2165549335768446	ITI	999	999
431.09582914737985	0.5965497171273455	fixation_1	999	999
431.6925382532645	3.005501929554157	face	2.067408448085189	3
434.69808757689316	0.5965497171273455	fixation_2	999	999
435.2453079945408	1.0007136267377064	feedback win	999	999
436.24603399808984	1.1178924101404846	ITI	999	999
437.3709464550484	0.5932321376167238	fixation_1	999	999
437.96433647198137	3.0063990948256105	face	2.0666878782212734	2
440.97078779083677	0.5932321376167238	fixation_2	999	999
441.5171620596666	1.000534616294317	feedback loss	999	999
442.5177084490424	3.2171469057211652	ITI	999	999
445.74201697972603	0.5955064456211403	fixation_1	999	999
446.3376840214478	3.0054533281363547	face	2.0682899160310626	2
449.34318685671315	0.5955064456211403	fixation_2	999	999
449.8905856810743	1.0009705203119665	feedback win	999	999
450.8915682763327	3.2166853424860165	ITI	999	999
454.11510522069875	0.79643856768962	fixation_1	999	999
454.9117122333264	3.00624272483401	face	2.067425051005557	2
457.9180050690193	0.79643856768962	fixation_2	999	999
458.46440650639124	1.0006849488709122	feedback win	999	999
459.4650950777577	1.1178749016253278	ITI	999	999
460.5898433160037	0.6099570858059451	fixation_1	999	999
461.199959488702	3.006848884979263	face	1.5509606188861653	2
464.2068560695043	0.6099570858059451	fixation_2	999	999
464.7527751146117	1.000807207194157	feedback win	999	999
465.75359469861723	1.1180828918004408	ITI	999	999
466.8786212634295	0.593075163778849	fixation_1	999	999
467.4718630609568	3.004951012087986	face	2.3180360411060974	2
470.47686690068804	0.593075163778849	fixation_2	999	999
471.0249207885936	1.0007257016841322	feedback win	999	999
472.02564981090836	1.117247912217863	ITI	999	999
473.1499654657673	0.8438156573101878	fixation_1	999	999
473.99399152828846	3.0067390033509582	face	1.800736931269057	3
477.0007788311923	0.8438156573101878	fixation_2	999	999
477.546680971398	1.000780340633355	feedback win	999	999
478.5474649344105	5.316388420760632	ITI	999	999
483.8709325689124	1.0649856188101694	fixation_1	999	999
484.9361077636713	3.0067275322508067	face	2.318757214699872	2
487.94288510491606	1.0649856188101694	fixation_2	999	999
488.4891881317599	1.0005566530162469	feedback win	999	999
489.48974780354183	5.3170006182044744	ITI	999	999
494.81388891569804	0.5973647731589153	fixation_1	999	999
495.41142273752484	3.005408047232777	face	2.067371921497397	2
498.4168793861754	0.5973647731589153	fixation_2	999	999
498.9644831820624	1.0005777841433883	feedback loss	999	999
499.9650739466306	5.3163814776344225	ITI	999	999
