TrialNumber,nTrial,Block,Endowment,ITI,ISI,L_Option,R_Option,ran,order,cue_Onset,endowment_onset,endowment_offset,ISI_onset,ISI_offset,decision_onset,resp,rt,resp_onset,decision_offset,trialDuration,ITIonset,ITIoffset
1,1,1,15,5,1.5,1,7,1.0,0.0,5.003305,6.002241,6.0188046,6.019003,7.535876,7.5360174,2.0,1.0334595,8.569477,11.052662,3.5172696,11.053412,16.05493
2,2,3,23,3,1.5,1,0,1.0,1.0,17.0535,18.051859,18.06854,18.068615,19.584887,19.585026,3.0,1.1007797,20.685804,23.101065,3.5166025,23.101728,26.102955
3,3,3,21,1,1.5,9,0,1.0,2.0,27.103388,28.101776,28.118456,28.11854,29.634954,29.6351,2.0,1.200993,30.836092,33.152065,3.5174968,33.152706,34.153572
4,4,3,17,3,1.5,0,1,1.0,3.0,35.153297,36.151833,36.16879,36.168915,37.684933,37.685074,2.0,1.6337384,39.318813,41.20209,3.517557,41.202732,44.20454
5,5,1,19,5,3,4,1,1.0,4.0,45.203255,46.20205,46.218777,46.21894,49.23504,49.23515,2.0,0.9007136,50.135864,52.75159,3.5169773,52.752228,57.754288
6,6,1,17,1,1.5,5,3,1.0,5.0,58.75331,59.75207,59.76874,59.76891,61.28488,61.284992,2.0,1.0173516,62.302345,64.80215,3.517709,64.8028,65.803604
7,7,2,15,3,3,1,3,1.0,6.0,66.80312,67.80189,67.81833,67.81851,70.835884,70.836,2.0,0.8658987,71.7019,74.35302,3.5175629,74.35367,77.355705
8,8,3,19,3,3,9,0,1.0,7.0,78.35332,79.35209,79.36851,79.368645,82.38592,82.386055,2.0,1.250003,83.636055,85.90201,3.5164871,85.90265,88.903755
9,9,2,23,8,4.5,1,4,1.0,8.0,89.90303,90.901764,90.91836,90.91849,95.43496,95.43508,2.0,0.7009862,96.13606,98.95191,3.5173728,98.95255,106.95364
10,10,3,25,1,3,0,11,1.0,9.0,107.953674,108.95203,108.96848,108.96861,111.985886,111.98603,3.0,2.3499978,114.33603,115.50272,3.5172234,115.50335,116.50407
11,11,3,23,1,1.5,1,0,1.0,10.0,117.503105,118.502014,118.518486,118.518616,120.035835,120.03598,3.0,1.4502144,121.4862,123.55195,3.5165026,123.55258,124.55367
12,12,1,23,5,1.5,7,10,1.0,11.0,125.55317,126.55173,126.56831,126.56841,128.08589,128.08601,2.0,3.015905,131.10191,131.60384,3.5183518,131.60446,136.60674
13,13,1,19,3,3,9,6,1.0,12.0,137.60312,138.602,138.61847,138.61865,141.63487,141.63498,2.0,2.5510328,144.18602,145.15091,3.5164833,145.15157,148.15242
14,14,3,19,8,1.5,0,4,1.0,13.0,149.15276,150.15201,150.16843,150.16856,151.68591,151.68605,2.0,1.5997056,153.28577,155.2027,3.5171766,155.20334,163.20468
15,15,2,25,1,4.5,8,11,1.0,14.0,164.20305,165.20198,165.2185,165.21867,169.73485,169.73495,2.0,1.9509937,171.68594,173.25151,3.5170872,173.25214,174.25313
16,16,3,19,5,1.5,6,0,1.0,15.0,175.25308,176.25171,176.26826,176.26834,177.78589,177.78603,3.0,2.049418,179.83545,181.30197,3.5164647,181.3026,186.30457
17,17,2,19,3,4.5,6,1,1.0,16.0,187.30307,188.30164,188.31828,188.31851,192.8356,192.83572,3.0,1.3502806,194.186,196.35149,3.516309,196.35213,199.35295
18,18,1,21,1,1.5,7,1,1.0,17.0,200.3531,201.35197,201.36842,201.36858,202.8867,202.88681,2.0,0.8652021,203.75201,206.40393,3.5176451,206.40456,207.40564
19,19,1,15,1,3,3,7,1.0,18.0,208.403,209.40175,209.41829,209.41846,212.43677,212.43689,3.0,2.2153392,214.65222,215.95299,3.5166287,215.95363,216.95514
20,20,1,23,1,1.5,10,1,1.0,19.0,217.95316,218.95197,218.96843,218.9686,220.48482,220.48494,3.0,1.9170644,222.40201,224.00201,3.5176244,224.00267,225.00417
21,21,1,21,1,3,1,7,1.0,20.0,226.00323,227.00168,227.01823,227.01834,230.03493,230.03505,3.0,1.3669839,231.40204,233.55188,3.5173666,233.55252,234.55455
22,22,2,25,1,3,2,5,1.0,21.0,235.5532,236.55197,236.56842,236.56859,239.58482,239.58493,2.0,0.767352,240.3523,243.1023,3.517908,243.10295,244.10567
23,23,2,25,8,1.5,8,5,1.0,22.0,245.10304,246.10194,246.11838,246.11859,247.63588,247.636,2.0,1.8002369,249.43623,251.1518,3.516328,251.15242,259.1535
24,24,3,21,1,1.5,0,1,1.0,23.0,260.1531,261.15195,261.16843,261.16855,262.68497,262.68512,2.0,2.0670915,264.7522,266.201,3.5164363,266.20166,267.20264
25,25,3,21,1,1.5,4,0,1.0,24.0,268.20282,269.20166,269.21826,269.21844,270.73648,270.73663,3.0,1.8824435,272.61908,274.2529,3.516789,274.25354,275.2551
26,26,1,19,3,4.5,9,4,1.0,25.0,276.2527,277.25195,277.26843,277.2686,281.7848,281.7849,2.0,0.8843819,282.66928,285.30103,3.5166564,285.30167,288.30392
27,27,2,21,1,4.5,1,7,1.0,26.0,289.30298,290.30176,290.31824,290.3184,294.8353,294.83542,2.0,1.1167628,295.95218,298.35193,3.517108,298.35263,299.35388
28,28,2,23,5,3,4,1,1.0,27.0,300.353,301.35196,301.36844,301.3686,304.38614,304.38626,3.0,1.3992944,305.78555,307.90265,3.5169418,307.9033,312.90497
29,29,2,25,1,1.5,5,8,1.0,28.0,313.9026,314.90164,314.9182,314.9183,316.43588,316.436,2.0,1.3661755,317.8022,319.9519,3.516425,319.95255,320.9539
30,30,3,15,1,1.5,0,7,1.0,29.0,321.95303,322.9519,322.96848,322.96863,324.48532,324.48547,3.0,2.28357,326.76904,328.00186,3.5169458,328.0025,329.00378
31,31,2,19,3,1.5,6,1,1.0,30.0,330.00345,331.00153,331.0182,331.01828,332.53476,332.53488,3.0,1.7672296,334.3021,336.05185,3.5175316,336.0525,339.05502
32,32,2,25,1,3,11,8,1.0,31.0,340.05273,341.0519,341.06845,341.0686,344.08554,344.0857,3.0,1.8164778,345.90216,347.6019,3.5167363,347.6025,348.60345
33,33,1,17,1,1.5,5,3,1.0,32.0,349.6029,350.6017,350.61826,350.61844,352.13593,352.13605,2.0,0.9830321,353.11908,355.65225,3.5167737,355.65292,356.65475
34,34,3,21,1,1.5,7,0,1.0,33.0,357.65314,358.6519,358.66843,358.66858,360.1859,360.18607,3.0,2.9998631,363.1859,363.7024,3.5168588,363.70303,364.70398
35,35,2,23,3,4.5,4,7,1.0,34.0,365.70297,366.70163,366.71817,366.71826,371.23645,371.23657,2.0,1.4651544,372.70172,374.75394,3.517883,374.75455,377.75565
36,36,1,17,3,1.5,5,8,1.0,35.0,378.75302,379.7517,379.76846,379.76862,381.28482,381.28494,3.0,2.3671923,383.65213,384.80093,3.5165503,384.8016,387.8026
