onset	duration	trial_type	rt	resp	gender
0.60737812356092	3.00581043981947	decision	2.569222358521074	right	M
4.16057800105773	1.00060374487657	win	n/a	n/a	n/a
11.0825258749537	3.00608816242311	decision	2.568093657726422	right	M
14.6356125504244	1.00077581196092	loss	n/a	n/a	n/a
17.3547323629027	3.0052154493751	decision	2.3181369764497504	left	M
20.9072817055276	1.00081384798978	win	n/a	n/a	n/a
23.6265367568703	3.00600424187724	decision	2.062680180068128	left	F
27.1790897218743	1.00072328629903	win	n/a	n/a	n/a
31.9998816660373	3.00662640086375	decision	2.567726580891758	left	F
35.5525445125531	1.00085369520821	loss	n/a	n/a	n/a
42.4750508504221	3.00641509017441	decision	1.801449470454827	left	M
46.0283292147797	1.00056480325293	loss	n/a	n/a	n/a
50.831800022861	3.06839703943115	decision-missed	n/a	n/a	M
54.4536843223032	1.01537919102702	win	n/a	n/a	n/a
59.2875726984348	3.00582885404583	decision	1.5524322160053998	left	F
62.8417050597491	1.00107949576341	loss	n/a	n/a	n/a
65.5774740404449	3.0059493011795	decision	1.300934174330905	right	F
69.1305000395514	1.00004497892223	win	n/a	n/a	n/a
71.8493043953786	3.0050639094552	decision	1.5510934120975435	left	F
75.4019352435134	1.00110485299956	win	n/a	n/a	n/a
78.121158900205	3.00583821209148	decision	1.5507468624273315	left	F
81.6740713951876	1.00059649988543	loss	n/a	n/a	n/a
86.5118786786916	3.00654731027316	decision	2.0629992592148483	left	M
90.0640609443653	1.0007477379404	loss	n/a	n/a	n/a
92.7830859690439	3.00503009965178	decision	1.5510031521553174	left	M
96.3357297976036	1.00102787557989	win	n/a	n/a	n/a
103.258926215698	3.00548019143753	decision	1.3003047703532502	left	M
106.811249455903	1.00099406577647	win	n/a	n/a	n/a
109.530188748729	3.0050243641017	decision	1.801019302336499	left	F
113.083253387478	1.0001901795622	win	n/a	n/a	n/a
120.005456041661	3.00668586976826	decision	1.8017284005181864	left	M
123.558828590205	1.00084705394693	win	n/a	n/a	n/a
128.379142972175	3.00600243068766	decision	2.0640108336228877	right	F
131.932038864237	1.00081354612485	win	n/a	n/a	n/a
136.752130464418	3.00696027174126	decision	1.550945796421729	left	M
140.305790697341	1.00053914415184	win	n/a	n/a	n/a
145.126350199687	3.00570810516365	decision	1.550742938183248	left	F
148.679080665694	1.00079905625898	win	n/a	n/a	n/a
161.906564456644	3.00644829624798	decision	1.5514478102559224	left	M
165.459489026573	1.0007733971579	loss	n/a	n/a	n/a
172.382021023543	3.00592273636721	decision	1.3007400704082102	left	M
175.934970648959	1.0006617042236	win	n/a	n/a	n/a
182.857786104083	3.00618959160056	decision	1.5499302976531908	left	M
186.41015432321	1.00041265948676	loss	n/a	n/a	n/a
191.230321693351	3.00552879285533	decision	1.3015668988227844	right	M
194.783907967503	1.00030247622635	loss	n/a	n/a	n/a
197.50260666816	3.00624211726245	decision	2.3172307554632425	left	F
201.055216385168	1.00112356897444	loss	n/a	n/a	n/a
203.790944613051	3.00600997742731	decision	1.800872290506959	left	F
207.343835373293	1.00083588459529	win	n/a	n/a	n/a
214.266042555566	3.00572168931831	decision	1.5507317688316107	left	M
217.819052253501	1.00097444409039	loss	n/a	n/a	n/a
224.742132752552	3.0066010436276	decision	1.8007376553723589	left	M
228.29450700921	1.00053461594507	win	n/a	n/a	n/a
233.114927348332	3.00682835362386	decision	1.800964965368621	right	F
236.668234390672	1.0007003438659	loss	n/a	n/a	n/a
239.403663161094	3.00503100536298	decision	1.5510242832824588	left	F
242.956413248787	1.00068072229624	win	n/a	n/a	n/a
247.794052087469	3.00599971378688	decision	1.800350051256828	left	F
251.347022843896	1.00055363390129	loss	n/a	n/a	n/a
254.099006900215	3.00554358458612	decision	1.8005785685963929	left	M
257.651757591637	1.00097112345975	loss	n/a	n/a	n/a
260.371036189026	3.00654097099323	decision	1.5504733661655337	left	M
263.923546891892	1.00079181138426	loss	n/a	n/a	n/a
266.642506108386	3.00605797523167	decision	1.5507305613718927	left	M
270.195679723052	1.00074713421054	win	n/a	n/a	n/a
277.134695763933	3.00582009973004	decision	1.5505533622344956	left	F
280.687382156495	1.00097625539638	loss	n/a	n/a	n/a
283.422883074498	3.00514752813615	decision	1.5510487349238247	left	F
286.976046727388	1.00067438289989	loss	n/a	n/a	n/a
291.796580872498	3.00586206000298	decision	1.8008710829308257	left	F
295.349728224217	1.00046760041732	win	n/a	n/a	n/a
302.271754886839	3.00524141034111	decision	1.5501727012451738	left	M
305.824838543544	1.00062970584258	loss	n/a	n/a	n/a
312.76379964361	3.00570750143379	decision	1.8014419237151742	left	F
316.316534939571	1.00063755456358	win	n/a	n/a	n/a
319.052529720822	3.00581708108075	decision	1.0505790214519948	right	F
322.605183209409	1.00109911733307	loss	n/a	n/a	n/a
325.324013526319	3.0053205009317	decision	1.5512968739494681	left	M
328.877577462001	1.00011622079182	loss	n/a	n/a	n/a
335.816130128689	3.00613736768719	decision	1.5511371835600585	right	M
339.368842784199	1.00088961794972	loss	n/a	n/a	n/a
342.088252696209	3.00497214018833	decision	1.5500380661105737	left	F
345.641009425046	1.00064027134795	loss	n/a	n/a	n/a
350.478179757716	3.00607367255725	decision	1.3003268070751801	left	F
354.030792795355	1.00085037457757	win	n/a	n/a	n/a
363.071807291941	3.00639063853305	decision	1.8007883698446676	left	F
366.624740616186	1.00075890717562	loss	n/a	n/a	n/a
369.344140264438	3.00597526214551	decision	1.5499423724832013	left	M
372.89636992407	1.00078184949234	win	n/a	n/a	n/a
375.615426645265	3.00666322931647	decision	1.2996418586699292	left	M
379.168431815109	1.00070728710853	loss	n/a	n/a	n/a
381.887323412229	3.0057850824669	decision	1.30076814442873	left	M
385.440070481156	1.00104779901449	loss	n/a	n/a	n/a
390.277351299184	3.00568757776637	decision	2.0687236653175205	right	F
393.830626644776	1.01659301994368	loss	n/a	n/a	n/a
400.786125522107	3.00592213263735	decision	1.2996334062190726	left	F
404.33902926289	1.00049688201398	loss	n/a	n/a	n/a
411.278066434897	3.00497395137791	decision	1.0450472098309547	right	M
414.830760072451	1.00068525027018	loss	n/a	n/a	n/a
421.770279334625	3.00656270585023	decision	1.3006962988292798	left	F
425.322838337044	1.0012201681966	win	n/a	n/a	n/a
430.160318994545	3.00656270585023	decision	1.2997813236434013	left	F
433.712796793319	1.00099014153238	win	n/a	n/a	n/a
436.44899594225	3.00588017236441	decision	1.5500718757975847	left	F
440.001828441047	1.00093640817795	loss	n/a	n/a	n/a
444.839128880762	3.0066544751171	decision	1.0456808400340378	left	M
448.392098731594	1.00051016430371	win	n/a	n/a	n/a
453.212489185389	3.00529786047991	decision	1.300299336668104	left	F
456.765310514951	1.00086033635307	win	n/a	n/a	n/a
459.501080099377	3.00567852158565	decision	1.300713203730993	left	F
463.05382264033	1.00078305695206	win	n/a	n/a	n/a
465.789473890793	3.00525499461219	decision	1.30127861071378	left	F
469.342444647104	1.00057416129857	win	n/a	n/a	n/a
472.061510122614	3.00575187662616	decision	1.55124253698159	left	M
475.613919698284	1.00119632028509	win	n/a	n/a	n/a
482.536652742303	3.00703362678178	decision	1.0458664915058762	left	M
486.089546521194	1.00062397029251	win	n/a	n/a	n/a
493.011852415744	3.00577180017717	decision	1.5504718567244709	left	M
496.564653218025	1.00134061533026	loss	n/a	n/a	n/a
