onset	duration	trial_type	rt	resp	gender
0.614503821358085	3.00619744032156	decision	2.06320332502946	right	o
4.16754883842077	1.0007051739376	win	NaN	n/a	n/a
11.1064987692516	3.00517409283202	decision	2.06417958030943	left	o
14.6593059108127	1.00112326722592	loss	NaN	n/a	n/a
17.3780453641666	3.00658353499603	decision	2.06357764673885	right	o
20.9313671982381	1.00113473832607	win	NaN	n/a	n/a
23.6502648326568	3.00608635123353	decision	1.80061298212968	right	o
27.2032340796432	1.00093248393387	win	NaN	n/a	n/a
32.0238530508941	3.00672028330155	decision	1.80166862986516	left	o
35.5768123362213	1.00071332440712	loss	NaN	n/a	n/a
42.5162099438021	3.0049501034664	decision	1.80002704774961	left	o
46.0685518999817	1.0009071265813	loss	NaN	n/a	n/a
50.8893438441446	3.00616574357264	decision	2.0681597677758	left	o
54.4420175581472	1.00072238058783	win	NaN	n/a	n/a
59.2629700982943	3.00649870897178	decision	1.80148901580833	right	o
62.8156021538889	1.00098863209132	loss	NaN	n/a	n/a
65.5347696623066	3.0058207034599	decision	2.31689507339615	left	o
69.0872848932631	1.00081022549421	win	NaN	n/a	n/a
71.8063222946366	3.00507507869042	decision	1.80107212997973	right	o
75.3593419543467	1.00090259849094	win	NaN	n/a	n/a
78.0786712664412	3.00553935836069	decision	1.80029118608218	left	o
81.6309232646599	1.0009865189204	loss	NaN	n/a	n/a
86.4520050062565	3.00577270577196	decision	1.80134683381766	right	o
90.0048411275493	1.00066230806988	loss	NaN	n/a	n/a
92.7406333524268	3.00529695488513	decision	1.550310656894	left	o
96.292861502734	1.00114228518214	win	NaN	n/a	n/a
103.215443006833	3.00583217456006	decision	2.0668297179509	left	o
106.768305089092	1.00094425689895	win	NaN	n/a	n/a
109.487439089688	3.00687393627595	decision	1.55081146315206	left	o
113.040173480054	1.00092071073595	win	NaN	n/a	n/a
119.962412358844	3.00629675632808	decision	1.80181232118048	left	o
123.515337834484	1.00082018726971	win	NaN	n/a	n/a
128.336390294484	3.00655787577853	decision	2.31776839017402	left	o
131.888935712632	1.00087573181372	win	NaN	n/a	n/a
136.70987829112	3.00538872403558	decision	1.80123846163042	left	o
140.262457518955	1.0007477379404	win	NaN	n/a	n/a
145.083432397805	3.00629132252652	decision	2.06368632079102	left	o
148.636356665869	1.00065777997952	win	NaN	n/a	n/a
161.862878691405	3.00614400883205	decision	1.80156720068771	right	o
165.417003204115	1.00048873131163	loss	NaN	n/a	n/a
172.355607490987	3.00542494887486	decision	1.55137868144084	right	o
175.908531155321	1.00062125339173	win	NaN	n/a	n/a
182.830907386146	3.00651410443243	decision	1.80066430044826	right	o
186.383822598029	1.00100312195718	loss	NaN	n/a	n/a
191.204184072092	3.00573406612966	decision	1.55028620525263	left	o
194.757377006579	1.00075528479647	loss	NaN	n/a	n/a
197.476433124044	3.00546087161638	decision	2.06843145296443	left	o
201.028966467362	1.00104327104054	loss	NaN	n/a	n/a
203.747893987224	3.00591458578128	decision	1.55056936154142	left	o
207.301015679841	1.00064570503309	win	NaN	n/a	n/a
214.240578713478	3.00517590413801	decision	1.55025662179105	right	o
217.792856672779	1.00057144451421	loss	NaN	n/a	n/a
224.732236469979	3.00543883489445	decision	2.06751225143671	right	o
228.284941276768	1.00074260612018	win	NaN	n/a	n/a
233.105529758846	3.00567459734157	decision	2.56809818581678	left	o
236.658300675801	1.00060344289523	loss	NaN	n/a	n/a
239.394035846693	3.00665628630668	decision	1.8005933604436	right	o
242.94743767695	1.00023395114113	win	NaN	n/a	n/a
247.767404301907	3.00527703133412	decision	2.06825938564725	right	o
251.320855337312	1.00061008415651	loss	NaN	n/a	n/a
254.039373820066	3.00519552570768	decision	2.06322988972533	right	o
257.591998932534	1.0009566337103	loss	NaN	n/a	n/a
260.311038748943	3.00651953811757	decision	1.3006024165079	left	o
263.864014637191	1.00079150940292	loss	NaN	n/a	n/a
266.59975554375	3.00610174669418	decision	2.31776265462395	left	o
270.152644794551	1.00096780294552	win	NaN	n/a	n/a
277.091648760601	3.00690653850324	decision	1.30090549646411	right	o
280.644770151353	1.00057989684865	loss	NaN	n/a	n/a
283.38071059552	3.0058207034599	decision	1.55084617855027	left	o
286.933053457411	1.00046307221055	loss	NaN	n/a	n/a
291.753614167217	3.00656119652558	decision	1.55088481819257	right	o
295.307012073114	1.00039696216118	win	NaN	n/a	n/a
302.278926167404	3.00552184984554	decision	1.30047351703979	left	o
305.832001975505	1.00100010319147	loss	NaN	n/a	n/a
312.754197384696	3.00521695869975	decision	1.55021918949205	right	o
316.306997583248	1.00101157440804	win	NaN	n/a	n/a
319.026300632278	3.00608031381853	decision	2.06807946972549	left	o
322.578866577824	1.00076403899584	loss	NaN	n/a	n/a
325.314571561525	3.00622551445849	decision	1.30077388009522	left	o
328.867852642783	1.00042141391896	loss	NaN	n/a	n/a
335.806728916825	3.0054334012093	decision	1.54949409200344	right	o
339.359255920746	1.00113866268657	loss	NaN	n/a	n/a
342.095220212941	3.00545241916552	decision	1.80008138471749	left	o
345.648015279556	1.00043439434376	loss	NaN	n/a	n/a
350.468093899195	3.00614370696712	decision	1.55115046584979	right	o
354.022052985849	1.00058261374943	win	NaN	n/a	n/a
363.06232517818	3.00689778418746	decision	1.8008629323449	left	o
366.615387100028	1.00058774556965	loss	NaN	n/a	n/a
369.334756259224	3.00648452085443	decision	1.30045057472307	left	o
372.88704901014	1.00058834929951	win	NaN	n/a	n/a
375.605824386352	3.00629645434674	decision	1.55054762668442	right	o
379.158770993003	1.00085852504708	loss	NaN	n/a	n/a
381.877858203254	3.00663304212503	decision	1.80044061294757	left	o
385.430935218814	1.00027893006336	loss	NaN	n/a	n/a
390.267861034838	3.00538359233178	decision	1.55123589583673	right	o
393.820682968129	1.00091286213137	loss	NaN	n/a	n/a
400.760086311377	3.00549951125868	decision	1.55002085934393	right	o
404.312737988657	1.00069249526132	loss	NaN	n/a	n/a
411.252171217231	3.00583308027126	decision	1.79983747191727	left	o
414.804627281148	1.00080599926878	loss	NaN	n/a	n/a
421.743899309891	3.00547143712174	decision	1.55058596446179	right	o
425.296658453764	1.00078486814164	win	NaN	n/a	n/a
430.134205221315	3.00676163972821	decision	2.56773050525226	left	o
433.686815542052	1.00053401233163	win	NaN	n/a	n/a
436.405781097827	3.00615849869791	decision	2.06853197643068	left	o
439.958497677697	1.00079935812391	loss	NaN	n/a	n/a
444.779363580514	3.00626355037093	decision	2.05081568937749	right	o
448.332282716758	1.00120658392552	win	NaN	n/a	n/a
453.152716942132	3.0061068785144	decision	1.80010191211477	left	o
456.705762864789	1.00100251822732	win	NaN	n/a	n/a
459.441127034486	3.00667953048833	decision	1.80067396035884	right	o
462.993856896763	1.00123254500795	win	NaN	n/a	n/a
465.730254979571	3.00553271721583	decision	1.30049857241102	left	o
469.282546824892	1.00101730995812	win	NaN	n/a	n/a
472.01833150303	3.00604861706961	decision	1.55141490604728	right	o
475.571286562015	1.00079332070891	win	NaN	n/a	n/a
482.510490669403	3.00585089076776	decision	1.55030069511849	left	o
486.063181590172	1.00054035149515	win	NaN	n/a	n/a
493.002405621111	3.00546962593216	decision	2.31754802330397	right	o
496.555190424086	1.00047786405776	loss	NaN	n/a	n/a
