TrialNumber,Trialn,Blockn,BlockType,Partner,Feedback,ITI,ran,order,studyStart,InitFixOnset,decision_onset,resp,resp_onset,rt,outcome_val,outcome_onset,outcome_offset,trialDuration,ITIonset,ITIoffset
1,1,1,1,1,1,0.750000,1.0,0.0,3.0002557e-06,0.0102723,4.0196204,2.0,5.0447564,1.0251358,6.0,6.5363264,7.5441165,3.5244958,7.5443044,8.294519
2,2,1,1,1,2,0.750000,1.0,1.0,--,--,8.296272,3.0,9.576997,1.2807245,5.0,10.814514,11.821233,3.5249605,11.821396,12.577104
3,3,1,1,1,1,0.750000,1.0,2.0,--,--,12.578868,3.0,13.210339,0.6314709,2.0,15.097103,16.104084,3.5252163,16.104246,16.86089
4,4,1,1,1,1,0.750000,1.0,3.0,--,--,16.862583,3.0,17.911291,1.0487072,4.0,19.380335,20.385765,3.5231807,20.38593,21.144024
5,5,1,1,1,3,0.750000,1.0,4.0,--,--,21.14564,3.0,22.510565,1.3649269,9.0,23.663376,24.67015,3.5245123,24.6703,25.427464
6,6,1,1,1,1,0.750000,1.0,5.0,--,--,25.429127,2.0,25.994535,0.5654093,6.0,27.945583,28.951084,3.521958,28.951246,29.71084
7,7,1,1,1,1,0.750000,1.0,6.0,--,--,29.712456,3.0,30.560562,0.8481073,2.0,32.22951,33.234085,3.521631,33.23425,33.99421
8,8,1,1,1,1,8,1.0,7.0,--,--,33.99583,2.0,34.527306,0.531475,6.0,36.51338,37.517773,3.521943,37.51792,45.527496
9,9,2,2,1,2,0.750000,1.0,8.0,--,--,45.52915,2.0,46.26042,0.7312753,5.0,48.047024,49.052628,3.5234797,49.052784,49.8105
10,10,2,2,1,3,0.750000,1.0,9.0,--,--,49.812145,2.0,50.811016,0.9988712,2.0,52.32943,53.33488,3.5227377,53.335026,54.0942
11,11,2,2,1,3,0.750000,1.0,10.0,--,--,54.09581,3.0,54.676743,0.5809307,9.0,56.614346,57.619045,3.5232353,57.61921,58.377266
12,12,2,2,1,3,0.750000,1.0,11.0,--,--,58.379356,3.0,58.994007,0.6146509,7.0,60.89597,61.90103,3.521677,61.901196,62.66058
13,13,2,2,1,3,0.750000,1.0,12.0,--,--,62.662155,2.0,63.543625,0.8814699,1.0,65.18034,66.1861,3.5239415,66.186264,66.9437
14,14,2,2,1,3,0.750000,1.0,13.0,--,--,66.945244,3.0,68.42655,1.4813133,7.0,69.462654,70.467606,3.522361,70.46776,71.22694
15,15,2,2,1,3,0.750000,1.0,14.0,--,--,71.228485,3.0,71.82752,0.5990332,8.0,73.74536,74.751,3.5225122,74.751236,75.51107
16,16,2,2,1,2,12,1.0,15.0,--,--,75.51273,3.0,75.99323,0.4804972,5.0,78.030975,79.036224,3.5234873,79.03637,91.04412
17,17,3,4,2,3,0.750000,1.0,16.0,--,--,91.07765,2.0,92.12754,1.0498863,1.0,93.59509,94.60022,3.522568,94.600365,95.360794
18,18,3,4,2,3,0.750000,1.0,17.0,--,--,95.387146,3.0,96.611015,1.2238668,6.0,97.9044,98.9097,3.522547,98.90985,99.66104
19,19,3,4,2,1,0.750000,1.0,18.0,--,--,99.68757,3.0,100.77739,1.0898165,2.0,102.204414,103.21026,3.5226858,103.2104,103.96055
20,20,3,4,2,3,0.750000,1.0,19.0,--,--,103.985176,2.0,104.52708,0.5419019,4.0,106.50237,107.506744,3.5215707,107.5069,108.26076
21,21,3,4,2,3,0.750000,1.0,20.0,--,--,108.286224,3.0,108.67724,0.3910205,9.0,110.80247,111.80612,3.5198996,111.80627,112.56053
22,22,3,4,2,3,0.750000,1.0,21.0,--,--,112.58659,3.0,113.09367,0.5070837,7.0,115.10412,116.108604,3.522017,116.10878,116.86059
23,23,3,4,2,3,0.750000,1.0,22.0,--,--,116.88452,2.0,117.31105,0.4265344,2.0,119.40136,120.407425,3.522907,120.40758,121.16101
24,24,3,4,2,1,8,1.0,23.0,--,--,121.18677,3.0,121.82752,0.6407501,3.0,123.703354,124.70963,3.5228646,124.70979,132.7107
25,25,4,6,3,3,0.750000,1.0,24.0,--,--,132.98505,2.0,133.7935,0.8084469,3.0,135.50237,136.50813,3.5230854,136.50829,137.26057
26,26,4,6,3,3,0.750000,1.0,25.0,--,--,137.52264,3.0,138.26103,0.7383975,9.0,140.03845,141.04224,3.5196016,141.04239,141.79399
27,27,4,6,3,3,0.750000,1.0,26.0,--,--,142.05899,3.0,142.66045,0.6014614,7.0,144.5755,145.57938,3.5203893,145.57954,146.34354
28,28,4,6,3,3,0.750000,1.0,27.0,--,--,146.60722,3.0,147.42632,0.8190919,9.0,149.12535,150.13081,3.5235834,150.13095,150.894
29,29,4,6,3,3,0.750000,1.0,28.0,--,--,151.15938,2.0,151.5109,0.3515119,1.0,153.67628,154.67955,3.520178,154.6797,155.4439
30,30,4,6,3,2,0.750000,1.0,29.0,--,--,155.71059,3.0,156.3261,0.6155093,5.0,158.2295,159.23616,3.5255666,159.23631,159.99393
31,31,4,6,3,1,0.750000,1.0,30.0,--,--,160.26085,2.0,160.86069,0.5998461,7.0,162.77776,163.78288,3.5220356,163.78305,164.54404
32,32,4,6,3,3,12,1.0,31.0,--,--,164.81973,3.0,165.74414,0.9244143,6.0,167.3365,168.3421,3.522376,168.34225,180.34375
33,33,5,5,3,1,0.750000,1.0,32.0,--,--,180.6155,2.0,181.22636,0.6108724,8.0,183.13437,184.14009,3.5246046,184.14024,184.89355
34,34,5,5,3,1,0.750000,1.0,33.0,--,--,185.16245,3.0,185.9764,0.8139457,2.0,187.68163,188.6859,3.5234492,188.68605,189.44383
35,35,5,5,3,3,0.750000,1.0,34.0,--,--,189.71628,3.0,190.61069,0.8944178,9.0,192.23256,193.23895,3.5226789,193.2391,193.99387
36,36,5,5,3,1,0.750000,1.0,35.0,--,--,194.25827,3.0,195.11092,0.8526523,3.0,196.77502,197.77911,3.5208366,197.77927,198.54396
37,37,5,5,3,1,0.750000,1.0,36.0,--,--,198.80788,3.0,199.66058,0.8527011,3.0,201.32437,202.33015,3.52228,202.3303,203.0935
38,38,5,5,3,1,0.750000,1.0,37.0,--,--,203.35722,3.0,204.1942,0.8369702,2.0,205.8753,206.87924,3.522013,206.87938,207.64388
39,39,5,5,3,1,0.750000,1.0,38.0,--,--,207.91035,3.0,209.36082,1.450471,1.0,210.42638,211.42969,3.5193343,211.42984,212.19391
40,40,5,5,3,3,8,1.0,39.0,--,--,212.46106,2.0,213.27681,0.815748,4.0,214.97939,215.98476,3.523703,215.98494,223.99391
41,41,6,3,2,2,0.750000,1.0,40.0,--,--,224.01991,2.0,225.47621,1.4562979,5.0,226.53781,227.54326,3.52334,227.5434,228.29375
42,42,6,3,2,1,0.750000,1.0,41.0,--,--,228.31732,3.0,229.66074,1.343408,2.0,230.8334,231.83812,3.5207891,231.83827,232.59416
43,43,6,3,2,1,0.750000,1.0,42.0,--,--,232.61752,2.0,233.47687,0.859348,7.0,235.1355,236.13974,3.522224,236.13991,236.89368
44,44,6,3,2,1,0.750000,1.0,43.0,--,--,236.92119,3.0,237.54422,0.6230327,1.0,239.43796,240.44217,3.5209782,240.44232,241.19423
45,45,6,3,2,1,0.750000,1.0,44.0,--,--,241.21802,2.0,241.7606,0.5425898,6.0,243.73373,244.73698,3.5189662,244.73715,245.49355
46,46,6,3,2,1,0.750000,1.0,45.0,--,--,245.51752,3.0,246.57639,1.0588676,2.0,248.03545,249.04001,3.522488,249.04016,249.79367
47,47,6,3,2,3,0.750000,1.0,46.0,--,--,249.81805,2.0,250.44426,0.6261935,2.0,252.33408,253.34004,3.5219824,253.34021,254.09392
48,48,6,3,2,1,12,1.0,47.0,--,--,254.11877,2.0,254.54402,0.4252551,7.0,256.6358,257.641,3.5222151,257.64114,269.6437
49,49,7,6,3,3,0.750000,1.0,48.0,--,--,269.91464,3.0,270.74408,0.8294565,8.0,272.43137,273.43713,3.5225115,273.4373,274.1938
50,50,7,6,3,2,0.750000,1.0,49.0,--,--,274.45844,3.0,275.77643,1.3180002,5.0,276.97638,277.9816,3.5231564,277.98175,278.74377
51,51,7,6,3,3,0.750000,1.0,50.0,--,--,279.01346,2.0,279.37662,0.3631538,2.0,281.53137,282.53714,3.523673,282.5373,283.2938
52,52,7,6,3,2,0.750000,1.0,51.0,--,--,283.56302,3.0,284.14392,0.5808904,5.0,286.08035,287.08627,3.523244,287.08643,287.84335
53,53,7,6,3,3,0.750000,1.0,52.0,--,--,288.1094,2.0,289.19406,1.0846606,2.0,290.6266,291.63318,3.523751,291.63333,292.3938
54,54,7,6,3,3,0.750000,1.0,53.0,--,--,292.6584,3.0,293.4762,0.8178208,9.0,295.17654,296.18167,3.5233102,296.18182,296.94376
55,55,7,6,3,3,0.750000,1.0,54.0,--,--,297.20877,3.0,297.8441,0.6353166,7.0,299.72534,300.73083,3.5220702,300.73102,301.49362
56,56,7,6,3,3,10,1.0,55.0,--,--,301.75864,2.0,302.37662,0.617987,4.0,304.2764,305.28113,3.5224783,305.28125,315.29398
57,57,8,4,2,3,0.750000,1.0,56.0,--,--,315.31848,3.0,316.37662,1.0581295,9.0,317.83633,318.84082,3.5223496,318.84097,319.59372
58,58,8,4,2,1,0.750000,1.0,57.0,--,--,319.61722,2.0,320.19345,0.5762493,7.0,322.13437,323.14008,3.5228567,323.14023,323.8938
59,59,8,4,2,3,0.750000,1.0,58.0,--,--,323.91748,3.0,325.61047,1.6929795,8.0,326.4354,327.43997,3.5224767,327.44012,328.1937
60,60,8,4,2,1,0.750000,1.0,59.0,--,--,328.2182,2.0,328.91016,0.6919615,9.0,330.7354,331.7398,3.5216262,331.73996,332.49368
61,61,8,4,2,3,0.750000,1.0,60.0,--,--,332.5169,3.0,333.14386,0.6269611,8.0,335.03436,336.04007,3.5231793,336.04022,336.79373
62,62,8,4,2,3,0.750000,1.0,61.0,--,--,336.81775,3.0,337.26047,0.4427105,6.0,339.33438,340.33813,3.520377,340.3383,341.09372
63,63,8,4,2,3,0.750000,1.0,62.0,--,--,341.11676,2.0,341.51038,0.3936283,2.0,343.63348,344.6368,3.5200362,344.63693,345.39368
64,64,8,4,2,3,10,1.0,63.0,--,--,345.41803,3.0,346.42618,1.0081512,8.0,347.93652,348.9412,3.5231607,348.94135,358.9438
65,65,9,5,3,1,0.750000,1.0,64.0,--,--,359.20612,3.0,360.3774,1.171298,4.0,361.72253,362.72812,3.5220246,362.7283,363.49365
66,66,9,5,3,1,0.750000,1.0,65.0,--,--,363.75473,3.0,364.6437,0.8889716,4.0,366.27164,367.2771,3.5223668,367.27728,368.04367
67,67,9,5,3,3,0.750000,1.0,66.0,--,--,368.30734,2.0,368.86078,0.5534448,4.0,370.82355,371.82812,3.5207717,371.82828,372.59363
68,68,9,5,3,1,0.750000,1.0,67.0,--,--,372.85428,3.0,373.90942,1.0551552,1.0,375.3725,376.3793,3.5250225,376.37946,377.14365
69,69,9,5,3,2,0.750000,1.0,68.0,--,--,377.40778,2.0,378.82648,1.418711,5.0,379.92612,380.9318,3.5240219,380.93195,381.69363
70,70,9,5,3,1,0.750000,1.0,69.0,--,--,381.9579,3.0,382.66,0.7021349,3.0,384.4743,385.4801,3.5222392,385.48026,386.24326
71,71,9,5,3,1,0.750000,1.0,70.0,--,--,386.50705,2.0,386.91107,0.4040139,6.0,389.02237,390.02612,3.5190637,390.02628,390.77698
72,72,9,5,3,1,10,1.0,71.0,--,--,391.0411,3.0,391.60947,0.5683785,4.0,393.55948,394.56476,3.523661,394.5649,404.57693
