onset	duration	trial_type	rt	resp
0.00034359999699518085	0.6451568999909796	fixation_1	999	999
0.6455415999516845	3.0032773000421003	face	2.783519500051625	3
3.6488500999985263	0.6451568999909796	fixation_2	999	999
4.195597699959762	1.0165450000204146	feedback win	999	999
5.212144699995406	5.316893899987917	ITI	999	999
10.53408039995702	0.6121686000260524	fixation_1	999	999
11.146307099959813	3.0034935000003316	face	1.7817519000382163	3
14.149837100005243	0.6121686000260524	fixation_2	999	999
14.695828099967912	1.0163242000271566	feedback loss	999	999
15.712154499953613	1.1167879000422545	ITI	999	999
16.831952699983958	0.6135339000029489	fixation_1	999	999
17.445528899959754	3.0034442000323907	face	1.533071400015615	3
20.449009499978274	0.6135339000029489	fixation_2	999	999
20.996031699993182	1.016375600011088	feedback win	999	999
22.012409499962814	1.1175012000021525	ITI	999	999
23.132923099969048	0.6461248000268824	fixation_1	999	999
23.77909369999543	3.003731200005859	face	1.533868699974846	2
26.78286219999427	0.6461248000268824	fixation_2	999	999
27.328990799956955	1.016544200014323	feedback win	999	999
28.34553709998727	3.2164117000065744	ITI	999	999
31.56504479999421	0.647287099971436	fixation_1	999	999
32.21238979999907	3.0036454999935813	face	1.7833679000032134	3
35.21607259998564	0.647287099971436	fixation_2	999	999
35.76238759997068	1.0165649999980815	feedback loss	999	999
36.77895479998551	5.316979800001718	ITI	999	999
42.09905869996874	0.6130832000053488	fixation_1	999	999
42.712189299985766	3.002870599972084	face	2.0333397000213154	2
45.71510119998129	0.6130832000053488	fixation_2	999	999
46.262135199969634	1.000482400006149	feedback loss	999	999
47.2626198999933	3.2164601999684237	ITI	999	999
50.48216279997723	0.6133541000308469	fixation_1	999	999
51.09556369995698	3.0033686000388116	face	1.5333571000373922	3
54.09897309995722	0.6133541000308469	fixation_2	999	999
54.645685700001195	1.0164370999555103	feedback win	999	999
55.66212499997346	3.2167459999909624	ITI	999	999
58.88200409995625	0.646719700016547	fixation_1	999	999
59.52876949997153	3.0041580999968573	face	2.0327196000143886	3
62.532966499973554	0.646719700016547	fixation_2	999	999
63.079041599994525	1.0166564999963157	feedback loss	999	999
64.09570030000759	1.1172260999446735	ITI	999	999
65.21602019999409	0.679435400001239	fixation_1	999	999
65.89550519996556	3.004268700024113	face	1.7834079000167549	2
68.8998102999758	0.679435400001239	fixation_2	999	999
69.44565579999471	1.0001848000101745	feedback win	999	999
70.44584289996419	1.1181714000413194	ITI	999	999
71.56716390000656	0.6615501999622211	fixation_1	999	999
72.22876379999798	3.0028186999843456	face	1.784174099972006	2
75.2316241999506	0.6615501999622211	fixation_2	999	999
75.77880480000749	1.0001926999539137	feedback win	999	999
76.77899969997816	1.1174226999864914	ITI	999	999
77.89969379996182	0.6460379000054672	fixation_1	999	999
78.54578159999801	3.0031240999815054	face	1.782217399973888	2
81.54894319997402	0.6460379000054672	fixation_2	999	999
82.0954400000046	1.0166800000006333	feedback loss	999	999
83.11212209996302	3.21678850002354	ITI	999	999
86.33213819999946	0.6465749999624677	fixation_1	999	999
86.97877579997294	3.002784000011161	face	1.7831713000196032	3
89.98159689997556	0.6465749999624677	fixation_2	999	999
90.5287286999519	1.000059100042563	feedback loss	999	999
91.52878989995224	1.1176810000324622	ITI	999	999
92.6496790999663	0.6456937000039034	fixation_1	999	999
93.29542739997851	3.0029897000058554	face	1.7825237999786623	2
96.29845439997735	0.6456937000039034	fixation_2	999	999
96.8456567999674	1.016429400013294	feedback win	999	999
97.86208859999897	5.315830799983814	ITI	999	999
103.18122959998436	0.6474693000200205	fixation_1	999	999
103.82878260000143	3.0032307999790646	face	2.0341399000026286	2
106.83204929996282	0.6474693000200205	fixation_2	999	999
107.37874249997549	1.0165837000240572	feedback win	999	999
108.39532829995733	1.1176033000228927	ITI	999	999
109.51613599999109	0.6462386999628507	fixation_1	999	999
110.16244119999465	3.003580399963539	face	1.7834074999555014	3
113.16605889995117	0.6462386999628507	fixation_2	999	999
113.71229920000769	1.0166752999648452	feedback win	999	999
114.72897669998929	5.316080599965062	ITI	999	999
120.04838110000128	0.6136987999780104	fixation_1	999	999
120.6621372999507	3.0035156000521965	face	1.7838019000482745	3
123.66569439996965	0.6136987999780104	fixation_2	999	999
124.2123115999857	1.0163637999794446	feedback win	999	999
125.22867769998265	3.21588229999179	ITI	999	999
128.44776059995638	0.6644545000162907	fixation_1	999	999
129.11229560000356	3.003201999992598	face	1.534332999959588	3
132.11553409998305	0.6644545000162907	fixation_2	999	999
132.66211340000154	1.0001153000048362	feedback win	999	999
133.66223089996492	3.2158208999899216	ITI	999	999
136.88132339995354	0.6306895000161603	fixation_1	999	999
137.51207110000541	3.0028926999657415	face	1.5332091999589466	2
140.51499870000407	0.6306895000161603	fixation_2	999	999
141.06225399998948	1.0164248999790289	feedback win	999	999
142.07868109998526	3.216654399991967	ITI	999	999
145.29870689997915	0.6633588999975473	fixation_1	999	999
145.96212369995192	3.0033956000115722	face	1.7838059000205249	2
148.9655606999877	0.6633588999975473	fixation_2	999	999
149.51195199997164	1.0166885000071488	feedback win	999	999
150.52864259999478	11.617317099997308	ITI	999	999
162.14938139996957	0.6293042000033893	fixation_1	999	999
162.77874479995808	3.003342000010889	face	2.0332271000370383	2
165.78213129995856	0.6293042000033893	fixation_2	999	999
166.32870569999795	1.0001778999576345	feedback loss	999	999
167.32888569997158	5.316724100033753	ITI	999	999
172.64892289997078	0.6464269999996759	fixation_1	999	999
173.2954361999873	3.003521299979184	face	2.282488500000909	3
176.29899749998003	0.6464269999996759	fixation_2	999	999
176.84567199996673	1.016497900011018	feedback win	999	999
177.86217199999373	5.31594539998332	ITI	999	999
183.18149170000106	0.6307976999669336	fixation_1	999	999
183.8123514999752	3.003605299978517	face	1.7824055000091903	2
186.81599529995583	0.6307976999669336	fixation_2	999	999
187.36217229999602	1.0001086000120267	feedback loss	999	999
188.36228319996735	3.217088400037028	ITI	999	999
191.58279719995335	0.629111600050237	fixation_1	999	999
192.2119754999876	3.004015500016976	face	1.7837882000021636	3
195.21602799999528	0.629111600050237	fixation_2	999	999
195.76215530000627	1.0001241999561898	feedback loss	999	999
196.76228159997845	1.1177481000195257	ITI	999	999
197.88357929995982	0.6449653000454418	fixation_1	999	999
198.52860909997253	3.0033194000134245	face	1.782673200010322	2
201.5319658999797	0.6449653000454418	fixation_2	999	999
202.07897249999223	1.016397200000938	feedback loss	999	999
203.09537189995172	1.118663800007198	ITI	999	999
204.21757659997093	0.6610939999809489	fixation_1	999	999
204.87873639998725	3.0031333999941126	face	1.7822895999997854	3
207.88190959999338	0.6610939999809489	fixation_2	999	999
208.42871639999794	1.0001851999550126	feedback win	999	999
209.4289037999697	5.317056500003673	ITI	999	999
214.7495205999585	0.6123447000281885	fixation_1	999	999
215.3619314999669	3.0040383000159636	face	2.0327874000067823	3
218.36601219995646	0.6123447000281885	fixation_2	999	999
218.91195549996337	1.0003423999878578	feedback loss	999	999
219.91230019996874	5.316721800016239	ITI	999	999
225.23257339996053	0.6292676000157371	fixation_1	999	999
225.86190939997323	3.0029668000061065	face	2.0332270999788307	3
228.86491609999212	0.6292676000157371	fixation_2	999	999
229.41187700000592	1.01677909999853	feedback win	999	999
230.428658299963	3.2163454000256024	ITI	999	999
233.64851500000805	0.6467162999906577	fixation_1	999	999
234.29533459997037	3.0037069999962114	face	2.0336558999842964	3
237.2990829999908	0.6467162999906577	fixation_2	999	999
237.84526089997962	1.0000144999939948	feedback loss	999	999
238.84527769999113	1.1176141999894753	ITI	999	999
239.96663320000516	0.662287799990736	fixation_1	999	999
240.62904919998255	3.0035663999733515	face	1.7829721000161953	2
243.63265280000633	0.662287799990736	fixation_2	999	999
244.17874939995818	1.0169049000251107	feedback win	999	999
245.19565639999928	3.216980399971362	ITI	999	999
248.41627970000263	0.6622924999683164	fixation_1	999	999
249.07864749996224	3.003191300027538	face	1.7833490000339225	2
252.0818762999843	0.6622924999683164	fixation_2	999	999
252.62905439996393	1.0161268000374548	feedback loss	999	999
253.64518329995917	1.1167863000300713	ITI	999	999
254.7656262999517	0.6133850000333041	fixation_1	999	999
255.3791390999686	3.003526500018779	face	2.0329054000321776	3
258.3827071999549	0.6133850000333041	fixation_2	999	999
258.92894039995736	1.0002695000148378	feedback loss	999	999
259.92921209998894	1.1176369999884628	ITI	999	999
261.0507020999794	0.6279923000256531	fixation_1	999	999
261.6787790999515	3.003170600044541	face	1.783156700024847	2
264.68199339997955	0.6279923000256531	fixation_2	999	999
265.22854320000624	1.0004337999853306	feedback loss	999	999
266.2289794999524	1.1179649000405334	ITI	999	999
267.3506952999742	0.62784750002902	fixation_1	999	999
267.97861509997165	3.003279600001406	face	2.2827667000237852	2
270.9819335999782	0.62784750002902	fixation_2	999	999
271.5285222999519	1.000296900048852	feedback win	999	999
272.52882139995927	5.317674399993848	ITI	999	999
277.85023769998224	0.6616585999727249	fixation_1	999	999
278.5120138999773	3.0039155000122264	face	2.0339563000015914	2
281.5159699000069	0.6616585999727249	fixation_2	999	999
282.06178269995144	1.0003809000481851	feedback loss	999	999
283.06216579995817	1.1188017000094987	ITI	999	999
284.1847263999516	0.6605655000312254	fixation_1	999	999
284.84540409996407	3.003545799991116	face	2.0334988000104204	3
287.8489875999512	0.6605655000312254	fixation_2	999	999
288.3951099999831	1.0005206000059843	feedback loss	999	999
289.3956327000051	3.2164003999787383	ITI	999	999
292.61584250000305	0.6463529999600723	fixation_1	999	999
293.26228859997354	3.0036562000168487	face	1.7834298000088893	2
296.2659820999834	0.6463529999600723	fixation_2	999	999
296.8118174999836	1.0166766999755055	feedback win	999	999
297.82849639997585	5.316486400028225	ITI	999	999
303.14866109995637	0.6130512999952771	fixation_1	999	999
303.7617903999635	3.0032050000154413	face	2.5331223999965005	3
306.7650352999917	0.6130512999952771	fixation_2	999	999
307.3117305999622	1.0004378000157885	feedback loss	999	999
308.3121705999947	5.316793099977076	ITI	999	999
313.63280099997064	0.6623537000268698	fixation_1	999	999
314.2952804999659	3.0036969000357203	face	2.0336756000178866	3
317.2990145999938	0.6623537000268698	fixation_2	999	999
317.84508979995735	1.000045599997975	feedback win	999	999
318.8451375999721	1.1176927000051364	ITI	999	999
319.96660990000237	0.6618207999854349	fixation_1	999	999
320.6285480999504	3.0035784000065178	face	2.0333545000175945	3
323.6321653999621	0.6618207999854349	fixation_2	999	999
324.17852669995045	1.0001268000341952	feedback loss	999	999
325.1786559000029	1.1179517999989912	ITI	999	999
326.3004735999857	0.6279868999845348	fixation_1	999	999
326.9285391999874	3.003329399973154	face	1.7834689000155777	3
329.93190589995356	0.6279868999845348	fixation_2	999	999
330.4784967000014	1.0004121999954805	feedback loss	999	999
331.4789111999562	5.317073100013658	ITI	999	999
336.7999892999651	0.6284107000101358	fixation_1	999	999
337.42847809998784	3.002484700002242	face	2.2840262000099756	3
340.4310028000036	0.6284107000101358	fixation_2	999	999
340.97839780000504	1.016676799976267	feedback loss	999	999
341.9950766999973	1.1176928000058979	ITI	999	999
343.11662329995306	0.6450867000385188	fixation_1	999	999
343.76179049996426	3.0041156000224873	face	1.7826469000428915	3
346.76594339997973	0.6450867000385188	fixation_2	999	999
347.3119763999712	1.0164324000361376	feedback loss	999	999
348.3284108999651	3.2166196000180207	ITI	999	999
351.54894879995845	0.6627468999940902	fixation_1	999	999
352.2117751999758	3.0032817000173964	face	1.7838251999928616	2
355.21509670000523	0.6627468999940902	fixation_2	999	999
355.76213149999967	1.0002754000015557	feedback win	999	999
356.7624092999613	7.416547600005288	ITI	999	999
364.18287869996857	0.6625495000043884	fixation_1	999	999
364.84552400000393	3.0034693999914452	face	2.0333759999484755	2
367.84903069998836	0.6625495000043884	fixation_2	999	999
368.39508689998183	1.0166289000189863	feedback loss	999	999
369.4117178999586	1.1172665000194684	ITI	999	999
370.5330711999559	0.6287211000453681	fixation_1	999	999
371.1618749999907	3.0029112999909557	face	1.7833161000162363	3
374.16482639999595	0.6287211000453681	fixation_2	999	999
374.7116422999534	1.0005066000157967	feedback win	999	999
375.71215129998745	1.1167473999666981	ITI	999	999
376.83293819997925	0.6122401999891736	fixation_1	999	999
377.4452793999808	3.0026781000196934	face	1.7842172000091523	2
380.44799429998966	0.6122401999891736	fixation_2	999	999
380.99507760000415	1.0168814999633469	feedback loss	999	999
382.01196159998653	1.1171729000052437	ITI	999	999
383.13322969997535	0.6120805999962613	fixation_1	999	999
383.7453920999542	3.0036163000040688	face	2.032977499999106	2
386.74904669995885	0.6120805999962613	fixation_2	999	999
387.29526869999245	1.0165062999585643	feedback loss	999	999
388.3117772999685	3.216427500010468	ITI	999	999
391.53229199995985	0.6463416999904439	fixation_1	999	999
392.17871889995877	3.002756000030786	face	1.5332371999975294	3
395.18151219998254	0.6463416999904439	fixation_2	999	999
395.72882079996634	1.016307300014887	feedback loss	999	999
396.745130299998	5.316956800001208	ITI	999	999
402.0661153999972	0.6625231999787502	fixation_1	999	999
402.7287873000023	3.003200299979653	face	1.7842293999856338	3
405.7320289000054	0.6625231999787502	fixation_2	999	999
406.2786543999682	1.0165567999938503	feedback loss	999	999
407.2952133999788	5.317175499978475	ITI	999	999
412.6164846000029	0.6455735999625176	fixation_1	999	999
413.2622033999651	3.0033922999864444	face	2.0327080000424758	3
416.2656358999666	0.6455735999625176	fixation_2	999	999
416.8120776999858	1.0164730999968015	feedback loss	999	999
417.82855310000014	5.315922599984333	ITI	999	999
423.148697800003	0.6461836999515072	fixation_1	999	999
423.7949709999957	3.0038715999689884	face	1.7837809000047855	2
426.7988821999752	0.6461836999515072	fixation_2	999	999
427.34506369999144	1.016563999990467	feedback win	999	999
428.3616297999979	3.2171771999564953	ITI	999	999
431.5830233999877	0.6618750999914482	fixation_1	999	999
432.24498759995913	3.002761500014458	face	2.284080500015989	2
435.24778849998256	0.6618750999914482	fixation_2	999	999
435.7948772999807	1.0000213999883272	feedback win	999	999
436.79490079998504	1.1170723999966867	ITI	999	999
437.91622069996083	0.6453055000165477	fixation_1	999	999
438.5616143999505	3.0034466000506654	face	1.7825866000493988	2
441.56509769998956	0.6453055000165477	fixation_2	999	999
442.1116522999946	1.0167726000072435	feedback loss	999	999
443.12842719996115	3.216191500017885	ITI	999	999
446.34886490000645	0.6627701999968849	fixation_1	999	999
447.0117202999536	3.0033253000001423	face	1.5343592000426725	2
450.015083300008	0.6627701999968849	fixation_2	999	999
450.56159120000666	1.0000475999549963	feedback win	999	999
451.56164089997765	3.216405000013765	ITI	999	999
454.78230570000596	0.646017299965024	fixation_1	999	999
455.4284181999974	3.00353589997394	face	2.5335031999857165	3
458.43199519999325	0.646017299965024	fixation_2	999	999
458.9782268999843	1.0004398999735713	feedback win	999	999
459.9786689999746	1.1173670000280254	ITI	999	999
461.1003710000077	0.6617668999824673	fixation_1	999	999
461.76224690000527	3.003788899979554	face	2.0327080999850295	2
464.76607529999455	0.6617668999824673	fixation_2	999	999
465.31159589998424	1.0166215000208467	feedback win	999	999
466.32821949996287	1.1177735000383109	ITI	999	999
467.45035989995813	0.6445749000413343	fixation_1	999	999
468.09506029996555	3.002887999988161	face	1.7833826999994926	2
471.0979859000072	0.6445749000413343	fixation_2	999	999
471.6450964999967	1.0165028999908827	feedback win	999	999
472.66160160000436	1.1173825999721885	ITI	999	999
473.78340249997564	0.6448203999898396	fixation_1	999	999
474.42835359997116	3.0030433000065386	face	1.783482400001958	2
477.43143769999733	0.6448203999898396	fixation_2	999	999
477.9782332999748	1.0004492999869399	feedback win	999	999
478.9786847999785	5.31732989999	ITI	999	999
484.3006634999765	0.6281518000178039	fixation_1	999	999
484.928926899971	3.0040434999973513	face	2.282359600008931	2
487.93300989997806	0.6281518000178039	fixation_2	999	999
488.4781735999859	1.0000724999699742	feedback win	999	999
489.4782482999726	5.316833599994425	ITI	999	999
494.7995211999514	0.6119852000265382	fixation_1	999	999
495.4116032999591	3.0031317000393756	face	2.283448700036388	2
498.4147743000067	0.6119852000265382	fixation_2	999	999
498.9621984999976	1.0167735999566503	feedback loss	999	999
499.9789743999718	5.31499680003617	ITI	999	999
