onset	duration	trial_type	rt	resp
0.0004389226087369025	0.6779618294094689	fixation_1	999	999
0.6785202935279813	3.007078607886797	face	2.066696310561383	2
3.685649616003502	0.6779618294094689	fixation_2	999	999
4.230132790689822	1.014967441529734	feedback loss	999	999
5.245103552821092	5.3167179698939435	ITI	999	999
10.574922184809111	0.6701300496933982	fixation_1	999	999
11.24518656777218	3.006713040318573	face	2.5663429687847383	2
14.251954247010872	0.6701300496933982	fixation_2	999	999
14.795252572192112	1.0163968077395111	feedback win	999	999
15.811653002398089	5.316821814049035	ITI	999	999
21.133093465468846	0.67885778695927	fixation_1	999	999
21.81210882985033	3.00609631484258	face	2.566033247654559	2
24.81825917988317	0.67885778695927	fixation_2	999	999
25.361769721406745	1.016557403927436	feedback loss	999	999
26.37833950208733	5.317241114913486	ITI	999	999
31.700214963406324	0.6781625746225473	fixation_1	999	999
32.378526059299475	3.006583838898223	face	1.7981324356805999	3
35.3851663483365	0.6781625746225473	fixation_2	999	999
35.92827690884587	1.0169084816006944	feedback loss	999	999
36.94519837098778	1.1172696116555016	ITI	999	999
38.06707063241629	0.6614581588364672	fixation_1	999	999
38.728662520763464	3.007804611203028	face	2.566498131258413	2
41.73652177088661	0.6614581588364672	fixation_2	999	999
42.27832039358327	1.0166008735541254	feedback loss	999	999
43.29492458773893	1.1176819694810547	ITI	999	999
44.41717720849556	0.9610693168651778	fixation_1	999	999
45.378383877367014	3.006541274866322	face	2.3162576143513434	2
48.384979489288526	0.9610693168651778	fixation_2	999	999
48.92827147513162	1.0167173963272944	feedback win	999	999
49.9450015501061	1.1184752903936896	ITI	999	999
51.06815737337456	0.6433449040923733	fixation_1	999	999
51.71163298827014	3.007122681272449	face	2.3167886080627795	2
54.71880970473285	0.6433449040923733	fixation_2	999	999
55.26176389527973	1.0165235941822175	feedback win	999	999
56.2782998662442	3.216575697384542	ITI	999	999
59.499520777433645	0.6786244395480026	fixation_1	999	999
60.178296455094824	3.0065008239471354	face	2.8332700910395943	2
63.18485342731583	0.6786244395480026	fixation_2	999	999
63.728197637130506	1.0167122645070776	feedback loss	999	999
64.74492227839073	3.2167640658444725	ITI	999	999
67.9665452837362	0.6783153221185785	fixation_1	999	999
68.6450142589456	3.00666172199999	face	2.317168363631936	3
71.65173001610674	0.6783153221185785	fixation_2	999	999
72.19502109635505	1.016442692372948	feedback win	999	999
73.21147646737518	1.1178854315367062	ITI	999	999
74.33422778150998	0.6606744978344068	fixation_1	999	999
74.99505864930688	3.006342039036099	face	2.8329359182098415	2
78.00145593099296	0.6606744978344068	fixation_2	999	999
78.54486625085701	1.01659725108766	feedback win	999	999
79.56146682254621	3.2167673864169046	ITI	999	999
82.7832634045626	0.678228382836096	fixation_1	999	999
83.4616264225333	3.006686475535389	face	2.0664062110881787	3
86.46836240516859	0.678228382836096	fixation_2	999	999
87.01155326372827	1.0164958219393156	feedback loss	999	999
88.02805270813406	5.316790721175494	ITI	999	999
93.34975489464705	0.6782673243724275	fixation_1	999	999
94.02816741968854	3.007834798481781	face	2.566470660851337	2
97.03605806457927	0.6782673243724275	fixation_2	999	999
97.57803026391775	1.000148521270603	feedback loss	999	999
98.57818210578989	5.316816078440752	ITI	999	999
103.8998538031592	0.6782969078922179	fixation_1	999	999
104.57830345851835	3.006735077011399	face	2.5663366294756997	3
107.58509287258494	0.6782969078922179	fixation_2	999	999
108.12803136574803	1.0166229102760553	feedback win	999	999
109.14465789849055	5.316837511403719	ITI	999	999
114.46634167074808	1.0616179097269196	fixation_1	999	999
115.52811927103903	3.006893560057506	face	2.5665908060909715	2
118.53506867750548	1.0616179097269196	fixation_2	999	999
119.07831206190167	1.0165444233862218	feedback win	999	999
120.09485980588943	3.2166182614164427	ITI	999	999
123.31638047646265	0.6615490224212408	fixation_1	999	999
123.97809311377932	3.006748963147402	face	2.3163783633499406	2
126.98489762147074	0.6615490224212408	fixation_2	999	999
127.52792939322535	1.000008754315786	feedback win	999	999
128.5279417700076	1.1182715264440048	ITI	999	999
129.65103933186037	0.6436008919845335	fixation_1	999	999
130.29477455711458	3.074664536630735	face	n/a	n/a
133.3694895064691	0.6436008919845335	fixation_2	999	999
133.91168569520232	1.0156768418673892	feedback win	999	999
134.92736615956528	1.1182325848785695	ITI	999	999
136.05095547169913	0.6437808079645038	fixation_1	999	999
136.69488963088952	3.0064968996157404	face	2.5661361861566547	2
139.70144116942538	0.6437808079645038	fixation_2	999	999
140.2446948174911	1.0164112976344768	feedback loss	999	999
141.26111849190784	1.1177058173925616	ITI	999	999
142.38383116634213	0.660889732913347	fixation_1	999	999
143.0448754579702	3.0071918100875337	face	2.3172015696181916	3
146.05212311446667	0.660889732913347	fixation_2	999	999
146.59474252842483	1.0165833649516571	feedback loss	999	999
147.61132921397802	7.4165155040391255	ITI	999	999
155.03285187692381	0.6784418066672515	fixation_1	999	999
155.71146665653214	3.0065687452733982	face	2.3162322570569813	2
158.71809064445551	0.6784418066672515	fixation_2	999	999
159.26117796078324	1.0166111372236628	feedback loss	999	999
160.27780147476005	3.216745651618112	ITI	999	999
163.49970491963904	0.6614264622039627	fixation_1	999	999
164.16130495854304	3.0066614201059565	face	2.3163735333655495	3
167.168021923193	0.6614264622039627	fixation_2	999	999
167.7109486433328	1.0001621055416763	feedback win	999	999
168.71111406947603	1.1176605365180876	ITI	999	999
169.8338472712494	0.660673290345585	fixation_1	999	999
170.49469353453605	3.0067079084692523	face	2.0663579114770982	3
173.5014597043919	0.660673290345585	fixation_2	999	999
174.044433818548	1.0000256591592915	feedback loss	999	999
175.04446310017374	5.316557373735122	ITI	999	999
180.366176757816	0.8447693196067121	fixation_1	999	999
181.21112086158246	3.0069460858940147	face	2.0666311061067972	3
184.21811917141895	0.8447693196067121	fixation_2	999	999
184.76119048846886	1.0164964256982785	feedback loss	999	999
185.77769023476867	1.1178018128557596	ITI	999	999
186.9006498409144	0.6603949638956692	fixation_1	999	999
187.5612192871049	3.0066128186590504	face	2.5662493883573916	2
190.56788644281914	0.6603949638956692	fixation_2	999	999
191.11107549016015	1.000079996214481	feedback win	999	999
192.11115941070602	1.1174779036955442	ITI	999	999
193.23394785515848	0.6604326979722828	fixation_1	999	999
193.89455050733523	3.006504144577775	face	2.066258595441468	2
196.90110566836665	0.6604326979722828	fixation_2	999	999
197.44458300390397	1.0164789170958102	feedback win	999	999
198.46106524160132	5.317596720677102	ITI	999	999
203.784065177897	0.6770142517052591	fixation_1	999	999
204.46126236431883	3.0064751648169477	face	2.8285934825253207	2
207.46779186616186	0.6770142517052591	fixation_2	999	999
208.01101170451147	1.0166509843838867	feedback loss	999	999
209.0276660094969	5.316702272510156	ITI	999	999
214.34961844826466	0.694651151628932	fixation_1	999	999
215.04446219454985	3.007312559086131	face	1.7992179691500496	3
218.05182818503818	0.694651151628932	fixation_2	999	999
218.59444639153662	1.0164463148394134	feedback loss	999	999
219.61090508312918	3.2167960643128026	ITI	999	999
222.8331602094695	0.6777456887357403	fixation_1	999	999
223.51110332281678	3.007668768579606	face	1.5506102805084083	2
226.51882099473733	0.6777456887357403	fixation_2	999	999
227.06095801648917	1.016523292317288	feedback loss	999	999
228.07749398745364	1.1176831769698765	ITI	999	999
229.2006024167349	0.6436002882255707	fixation_1	999	999
229.8443889602786	3.0067136440775357	face	2.3173561283329036	2
232.85115331891575	0.6436002882255707	fixation_2	999	999
233.3942835011403	1.0000280741369352	feedback loss	999	999
234.3943151977437	5.316600843361812	ITI	999	999
239.716444231919	0.6944742543564644	fixation_1	999	999
240.41112889139913	3.0068500904308166	face	2.0664741323853377	2
243.41802848892985	0.6944742543564644	fixation_2	999	999
243.961126068898	1.0164737852464896	feedback loss	999	999
244.97760317474604	1.1175886908895336	ITI	999	999
246.10066843623645	0.6768062615592498	fixation_1	999	999
246.77767393365502	3.0065974231401924	face	2.066152638202766	3
249.78432720320416	0.6768062615592498	fixation_2	999	999
250.32753919286188	1.0168565595522523	feedback win	999	999
251.34439907301567	1.117496317892801	ITI	999	999
252.4681178884639	0.6427357254142407	fixation_1	999	999
253.11104983100086	3.0072802587237675	face	2.065877632354386	3
256.11837989868945	0.6427357254142407	fixation_2	999	999
256.66084505579784	1.0165625357476529	feedback loss	999	999
257.67741121401195	1.1177716256352141	ITI	999	999
258.80066242898465	0.6436247398960404	fixation_1	999	999
259.444479159778	3.0068666934093926	face	2.066445152653614	2
262.4514016995963	0.6436247398960404	fixation_2	999	999
262.99416238989215	1.0001720673171803	feedback win	999	999
263.9943468339916	3.2162889185128734	ITI	999	999
267.2163188038976	0.6611768136790488	fixation_1	999	999
267.8777190032124	3.0068944656813983	face	1.7998857110796962	3
270.8846696171677	0.6611768136790488	fixation_2	999	999
271.4273521224968	1.0169501400087029	feedback win	999	999
272.4443061868369	1.1183946904493496	ITI	999	999
273.56831721484195	0.6590157085447572	fixation_1	999	999
274.2275228011713	3.0067296433262527	face	2.0663247055199463	3
277.2343007440795	0.6590157085447572	fixation_2	999	999
277.7777439680649	1.0163104722159915	feedback win	999	999
278.79406711892807	3.216721803677501	ITI	999	999
282.01635937558603	0.6777390475326683	fixation_1	999	999
282.69429101774585	3.006388225534465	face	2.8330959106388036	2
285.7007326747116	0.6777390475326683	fixation_2	999	999
286.24406269649626	1.0164662384486292	feedback win	999	999
287.26054131169803	5.316889433481265	ITI	999	999
292.58325446915114	0.6939577505399939	fixation_1	999	999
293.2774238323036	3.0070810228644405	face	2.067095687816618	2
296.2845546641329	0.6939577505399939	fixation_2	999	999
296.8273162600235	1.0166168728028424	feedback win	999	999
297.84394581147353	5.316798267973354	ITI	999	999
303.1663359653612	0.6943251293560024	fixation_1	999	999
303.8608621417952	3.0075567738967948	face	2.316483113099821	3
306.8684753658599	0.6943251293560024	fixation_2	999	999
307.410741589003	1.016464729065774	feedback win	999	999
308.4272102424293	1.1178570555057377	ITI	999	999
309.5508599290624	0.6930367375607602	fixation_1	999	999
310.24410827923566	3.0066517602244858	face	2.566249690222321	2
313.250809244666	0.6930367375607602	fixation_2	999	999
313.7940091594064	1.0164852564048488	feedback loss	999	999
314.81050709445844	1.1177052136627026	ITI	999	999
315.93413263131515	0.8430975497758482	fixation_1	999	999
316.77744451054605	3.0068325818283483	face	2.5664537560078315	3
319.7843317312945	0.8430975497758482	fixation_2	999	999
320.3271808702266	1.0000984104117379	feedback win	999	999
321.32728229937493	3.217596328264335	ITI	999	999
324.55063352469006	0.6601018457440659	fixation_1	999	999
325.21094637928763	3.007325237733312	face	2.0659829858632293	3
328.218326557806	0.6601018457440659	fixation_2	999	999
328.7604750506871	1.0000090561807156	feedback loss	999	999
329.76049648365006	5.316708008089336	ITI	999	999
335.0830795340298	0.6941497414372861	fixation_1	999	999
335.777431228169	3.0075667357014026	face	2.0669335823040456	2
338.7850523009256	0.6941497414372861	fixation_2	999	999
339.32721618929645	1.0164357493049465	feedback win	999	999
340.3436646172486	5.316677217109827	ITI	999	999
345.6662283478072	0.6942046822514385	fixation_1	999	999
346.36066184937954	3.006566028430825	face	2.5661926363245584	2
349.36728040361777	0.6942046822514385	fixation_2	999	999
349.91034266451607	1.0000851280346978	feedback win	999	999
350.9104311131523	11.616609567485284	ITI	999	999
362.53314363665413	0.6939595617877785	fixation_1	999	999
363.22734439454507	3.0078909467556514	face	2.566429908067221	2
366.2352884708671	0.6939595617877785	fixation_2	999	999
366.7770182666136	1.016590609884588	feedback loss	999	999
367.79361249896465	3.2166249026195146	ITI	999	999
371.01631590593024	0.677507813234115	fixation_1	999	999
371.6940507272666	3.006613724253839	face	2.0662410868389998	3
374.70071697732783	0.677507813234115	fixation_2	999	999
375.2436787147017	1.0000724493875168	feedback win	999	999
376.24376384273637	3.216629128815839	ITI	999	999
379.4663063516782	0.6606799315486569	fixation_1	999	999
380.1272229512397	3.0069524252030533	face	2.0662570860877167	3
383.1342303172278	0.6606799315486569	fixation_2	999	999
383.6770006674342	1.016704415815184	feedback loss	999	999
384.6937174600316	3.2164368360536173	ITI	999	999
387.916193858895	0.6774018559663091	fixation_1	999	999
388.5938314772793	3.0073013897927012	face	1.7999880458519328	3
391.6011884115869	0.6774018559663091	fixation_2	999	999
392.14352949912427	1.0162165898946114	feedback loss	999	999
393.1597530320869	5.316380174568621	ITI	999	999
398.48246679326985	0.6778326280182227	fixation_1	999	999
399.1605412211502	3.0072923336119857	face	2.0660098525113426	3
402.1678921180137	0.6778326280182227	fixation_2	999	999
402.7101773591421	1.0167180000862572	feedback loss	999	999
403.72689898169483	1.1175651448429562	ITI	999	999
404.8505936473375	0.6762251570180524	fixation_1	999	999
405.52705728361616	3.0061904990579933	face	2.0670310871500988	2
408.53329819536884	0.6762251570180524	fixation_2	999	999
409.0769005061593	1.0169208583829459	feedback loss	999	999
410.0938246851438	5.316382891440298	ITI	999	999
415.4165281826572	1.2935646521800663	fixation_1	999	999
416.71033795530093	3.0065563684911467	face	2.06616803369252	3
419.71695077396	1.2935646521800663	fixation_2	999	999
420.26028109760955	1.0165181604970712	feedback win	999	999
421.27680257870816	1.1177885304787196	ITI	999	999
422.40069919705275	0.6761518020066433	fixation_1	999	999
423.0770934026805	3.006774924171623	face	2.06636455268017	3
426.0839208526595	0.6761518020066433	fixation_2	999	999
426.6268068200152	1.0000736569054425	feedback loss	999	999
427.6268840993871	3.2161065875552595	ITI	999	999
430.84926933274255	0.8609095357533079	fixation_1	999	999
431.71040859346977	3.0067447369219735	face	2.0664007773739286	3
434.71720404498046	0.8609095357533079	fixation_2	999	999
435.2602219306282	1.0164918975788169	feedback loss	999	999
436.27671745067346	1.11776407880825	ITI	999	999
437.4007188187679	0.6427909680933226	fixation_1	999	999
438.043740115565	3.007287805521628	face	1.8119162352231797	2
441.0510771263216	0.6427909680933226	fixation_2	999	999
441.59341428949847	1.0000398471602239	feedback win	999	999
442.59345745726023	1.1175102040579077	ITI	999	999
443.7171122757427	0.6436715301242657	fixation_1	999	999
444.3609625143872	3.0079483025183436	face	2.0655156872526277	3
447.36896515396074	0.6436715301242657	fixation_2	999	999
447.90999520928017	0.9999981887813192	feedback win	999	999
448.90999702052795	1.1178362263308372	ITI	999	999
450.03424833901227	0.6591491361905355	fixation_1	999	999
450.6936380675761	3.0067960552405566	face	2.316254595614737	2
453.7004839317815	0.6591491361905355	fixation_2	999	999
454.2435166091891	1.0164463148394134	feedback win	999	999
455.259966546495	3.2167728201311547	ITI	999	999
458.4831653262081	0.6769916112534702	fixation_1	999	999
459.1604225852643	3.006733869522577	face	2.317445482563926	2
462.1672077731055	0.6769916112534702	fixation_2	999	999
462.71009675919777	1.0166050997795537	feedback win	999	999
463.72670517954975	3.2166973520070314	ITI	999	999
466.9497626829543	0.6768811259244103	fixation_1	999	999
467.6268684020033	3.006292230071267	face	2.828695515432628	2
470.633213459776	0.6768811259244103	fixation_2	999	999
471.176651853777	1.0000301872496493	feedback loss	999	999
472.1766856634931	5.31662952125771	ITI	999	999
477.4997133720899	0.6767908660403918	fixation_1	999	999
478.17674543426256	3.0063450577436015	face	2.8288624509004876	3
481.18314392343746	0.6767908660403918	fixation_2	999	999
481.7265738650167	1.0167195094691124	feedback loss	999	999
482.74329699695227	3.2167052006698214	ITI	999	999
485.9664523070096	0.8601726650376804	fixation_1	999	999
486.82688609173056	3.0066635332477745	face	2.566223125439137	2
489.8336057732522	0.8601726650376804	fixation_2	999	999
490.3766173195618	1.000063996965764	feedback loss	999	999
491.37668433526414	1.1177112511068117	ITI	999	999
492.5008390545845	0.6756902389752213	fixation_1	999	999
493.1767991675588	3.006938237202121	face	1.811559421941638	3
496.1837908361922	0.6756902389752213	fixation_2	999	999
496.726606467244	1.0003589263942558	feedback win	999	999
497.7269777704205	1.1181951526959892	ITI	999	999
498.85202271168237	0.6578275384381413	fixation_1	999	999
499.5100938612013	3.0068199031811673	face	2.0664508882327937	3
502.5169632714824	0.6578275384381413	fixation_2	999	999
503.0600207024254	1.0164777095778845	feedback win	999	999
504.0765017326048	5.316899697121698	ITI	999	999
