onset	duration	trial_type	rt	resp	gender
0.6102408922743052	3.005031333072111	decision	1.5490664397366345	left	B
4.160173710319214	1.0000383380101994	loss	n/a	n/a	n/a
11.09346379514318	3.005800809711218	decision	2.0658432350028306	right	B
14.643553889472969	1.016514919581823	win	n/a	n/a	n/a
21.576879293541424	3.00682597362902	decision	2.06592262792401	right	B
25.12691142805852	1.016506165266037	loss	n/a	n/a	n/a
32.06031984742731	3.0059695572126657	decision	2.065961871528998	left	B
35.61024240171537	1.0165345415007323	loss	n/a	n/a	n/a
38.34349903895054	3.005589497857727	decision	2.315585962962359	left	B
41.89350128790829	1.0000793928047642	loss	n/a	n/a	n/a
44.610252967337146	3.006185397040099	decision	2.0664460773114115	left	B
48.16032585478388	1.0163826989009976	win	n/a	n/a	n/a
50.89368543098681	3.0056308546336368	decision	2.3156399984145537	right	B
54.443846465670504	1.01637485018	win	n/a	n/a	n/a
59.276953946915455	3.0062684124568477	decision	2.0619683811673895	left	B
62.82685506809503	1.0166791391093284	loss	n/a	n/a	n/a
67.66038185241632	3.087987801874988	decision	3.082754213246517	left	B
71.29344079236034	1.0001101839588955	win	n/a	n/a	n/a
74.29368380084634	3.005075406632386	decision	2.5670723147923127	right	B
77.84366944676731	1.0166169530712068	win	n/a	n/a	n/a
82.67699971108232	3.0055502542527393	decision	1.7993703512474895	left	B
86.22687517292798	1.0000084524508566	loss	n/a	n/a	n/a
93.14363101823255	3.0057630754308775	decision	2.065673280041665	left	B
96.69358708045911	1.0166625360725448	loss	n/a	n/a	n/a
103.64374950376805	3.0055411980720237	decision	2.3155675486195832	left	B
107.19354285590816	1.0000984108773991	win	n/a	n/a	n/a
114.7771201285068	3.0054035435896367	decision	1.799401142518036	left	B
118.32697174244095	1.016615443630144	win	n/a	n/a	n/a
123.16044117056299	3.0058832212816924	decision	2.0666166361188516	left	B
126.71033927309327	1.0000117730814964	win	n/a	n/a	n/a
129.74364079895895	3.0054255803115666	decision	2.567168914480135	right	B
133.2935446370393	1.0000516204163432	win	n/a	n/a	n/a
136.01028756203596	3.0057093418436125	decision	2.3167792706517503	right	B
139.5604087493848	1.0164065469289199	loss	n/a	n/a	n/a
142.29376077873167	3.005379997426644	decision	1.7993905768962577	left	B
145.8435118686175	1.0169475049478933	loss	n/a	n/a	n/a
154.87694953964092	3.0058814099757	decision	2.3160765081411228	left	B
158.42708370753098	1.0166652528569102	loss	n/a	n/a	n/a
163.26043268793728	3.0053600737592205	decision	2.062365345307626	right	B
166.8102849056013	1.000228518503718	win	n/a	n/a	n/a
169.52708277164493	3.0057826972333714	decision	2.3160759044112638	left	B
173.07708683190867	1.0000057355500758	loss	n/a	n/a	n/a
179.9937095507048	3.0049658264033496	decision	1.8000818681903183	left	B
183.54367648041807	1.0001095802290365	loss	n/a	n/a	n/a
186.26054075884167	3.0056924369418994	decision	1.7987708296859637	right	B
189.81035222345963	1.0168493959354237	win	n/a	n/a	n/a
192.54386696289293	3.0060115177184343	decision	1.549856443889439	right	B
196.09371616179124	1.000008754315786	win	n/a	n/a	n/a
203.0107808241155	3.0054925963049755	decision	1.7995623431634158	right	B
206.56048180279322	1.016529107815586	loss	n/a	n/a	n/a
213.49376162397675	3.0061307578580454	decision	2.067122274893336	left	B
217.04361052101012	1.0001977273495868	loss	n/a	n/a	n/a
221.86086237535346	3.0056788525544107	decision	2.0657460315851495	left	B
225.4104157377733	1.000191388069652	loss	n/a	n/a	n/a
228.12739291694015	3.0052981895860285	decision	1.5492620540317148	left	B
231.67739456216805	1.0162453462835401	loss	n/a	n/a	n/a
238.61035771749448	3.00592910614796	decision	1.5489622933091596	right	B
242.16047347115818	1.0000190179562196	loss	n/a	n/a	n/a
244.87712704145815	3.0057618679711595	decision	1.3008034978993237	right	B
248.42714649729896	1.016687591560185	win	n/a	n/a	n/a
251.21058846998494	3.0052003824384883	decision	1.045190529199317	right	B
254.76064807502553	1.0162202906794846	loss	n/a	n/a	n/a
257.4937558884267	3.0059574821498245	decision	1.5499702502274886	right	B
261.04384869954083	1.016616047360003	win	n/a	n/a	n/a
265.8770871941233	3.005652287742123	decision	1.5496445283060893	right	B
269.4271244604606	1.016558691393584	win	n/a	n/a	n/a
272.1606271249475	3.005690021906048	decision	1.5486960404086858	right	B
275.71079359331634	1.016014110762626	win	n/a	n/a	n/a
280.5437468170421	3.0052329847821966	decision	1.5493272588355467	right	B
284.0936645412585	1.0169076577294618	win	n/a	n/a	n/a
291.04383420955855	3.005201288033277	decision	1.549140700721182	left	B
294.59377970627975	1.0166718941181898	win	n/a	n/a	n/a
301.543905904633	3.00589740939904	decision	1.5498787824762985	left	B
305.09367118251976	1.0001071653096005	win	n/a	n/a	n/a
307.81069183163345	3.005645948345773	decision	2.0616058305604383	right	B
311.3605512941722	1.01641922572162	loss	n/a	n/a	n/a
314.0938900411129	3.005908276885748	decision	1.2998079176759347	left	B
317.6437422587769	1.0168029073392972	win	n/a	n/a	n/a
322.4771256528329	3.006764089455828	decision	2.0659950777189806	right	B
326.02719552163035	1.0165454088710248	loss	n/a	n/a	n/a
332.9771562931128	3.0058578638127074	decision	1.5495168355992064	left	B
336.52698556822725	1.0000072449911386	win	n/a	n/a	n/a
343.460650278721	3.005935747292824	decision	1.7977843056432903	left	B
347.0106015109923	1.016542088240385	win	n/a	n/a	n/a
360.24390508956276	3.0061458515701815	decision	2.0671213692985475	left	B
363.793738892884	1.0000588654074818	loss	n/a	n/a	n/a
368.61062366853	3.005791753414087	decision	1.7997202231781557	right	B
372.1607560251141	1.0004651877097785	win	n/a	n/a	n/a
376.97738541534636	3.0052791715133935	decision	1.799164171447046	left	B
380.5269828514429	1.0001521444646642	loss	n/a	n/a	n/a
385.3439590948401	3.0055734985508025	decision	1.5493894448736683	right	B
388.89388376218267	1.000028979848139	loss	n/a	n/a	n/a
395.8106845866423	3.005885334452614	decision	1.2993433335795999	right	B
399.3606291776523	1.0164599786512554	loss	n/a	n/a	n/a
402.0939075498609	3.005488370079547	decision	2.06644366227556	right	B
405.64416276919656	1.0163383233593777	loss	n/a	n/a	n/a
412.577229467337	3.0058409589109942	decision	1.8008649292169139	right	B
416.12708289246075	1.0001234663650393	win	n/a	n/a	n/a
418.8441545581445	3.0051611388335004	decision	2.0651724712224677	left	B
422.3939276848687	1.0000096599105746	loss	n/a	n/a	n/a
427.2109147957526	3.0054141090949997	decision	1.79840344900731	left	B
430.7605240048142	1.0167180808493868	loss	n/a	n/a	n/a
433.49423103791196	3.005051558604464	decision	2.0650879464810714	left	B
437.04386349138804	1.0000760721741244	win	n/a	n/a	n/a
439.7608141056262	3.0054654277628288	decision	1.7984879738651216	right	B
443.3105932697654	1.000054337317124	win	n/a	n/a	n/a
446.02751731919125	3.0060510631883517	decision	1.7999876835383475	right	B
449.577086680918	1.0003299482632428	win	n/a	n/a	n/a
454.394081338658	3.005177741870284	decision	1.5492451491300017	left	B
457.94394955562893	1.0166024630889297	win	n/a	n/a	n/a
462.7774072106695	3.005601271055639	decision	2.5667287822579965	left	B
466.3272733144695	1.0000039243604988	loss	n/a	n/a	n/a
473.24440197402146	3.0060341582866386	decision	1.5489755757153034	right	B
476.7940863497788	1.0165798225207254	loss	n/a	n/a	n/a
481.64406133955345	3.0050660484703258	decision	1.8000839812448248	right	B
485.1940970964497	1.0167023834073916	loss	n/a	n/a	n/a
487.9440072135767	3.0059454072033986	decision	1.299903611652553	right	B
491.4939421445597	1.0165849544573575	win	n/a	n/a	n/a
494.2274517521728	3.0060492519987747	decision	1.7999789292225614	right	B
497.77791043452453	1.0159483023453504	win	n/a	n/a	n/a
