TrialNumber,Trialn,Blockn,BlockType,Partner,Feedback,ITI,ran,order,studyStart,InitFixOnset,decision_onset,resp,resp_onset,rt,outcome_val,outcome_onset,outcome_offset,trialDuration,ITIonset,ITIoffset
1,1,1,2,1,3,0.750000,1.0,0.0,3.3206306e-06,0.005439437,4.014837,3.0,4.981277,0.96644026,6.0,6.5328975,7.546784,3.531947,7.547012,8.300421
2,2,1,2,1,1,0.750000,1.0,1.0,--,--,8.303789,3.0,9.051838,0.7480492,2.0,10.819168,11.82969,3.5259013,11.829885,12.58718
3,3,1,2,1,3,0.750000,1.0,2.0,--,--,12.589543,2.0,13.004634,0.4150901,4.0,15.106821,16.11667,3.527128,16.116852,16.873732
4,4,1,2,1,3,0.750000,1.0,3.0,--,--,16.876083,3.0,17.64168,0.76559556,8.0,19.393827,20.40265,3.526566,20.402838,21.16141
5,5,1,2,1,3,0.750000,1.0,4.0,--,--,21.163712,2.0,21.62812,0.4644079,4.0,23.681522,24.688644,3.5249317,24.68887,25.448084
6,6,1,2,1,3,0.750000,1.0,5.0,--,--,25.450424,2.0,25.865808,0.41538355,2.0,27.966787,28.973644,3.5232189,28.973837,29.734829
7,7,1,2,1,1,0.750000,1.0,6.0,--,--,29.737143,3.0,30.068565,0.3314232,2.0,32.25378,33.26263,3.5254872,33.262806,34.02148
8,8,1,2,1,3,10,1.0,7.0,--,--,34.023888,2.0,34.30581,0.28192246,4.0,36.54076,37.549618,3.5257318,37.5498,47.565807
9,9,2,6,3,3,0.750000,1.0,8.0,--,--,48.277313,2.0,48.85125,0.5739365,4.0,50.794655,51.801544,3.5242293,51.801735,52.55341
10,10,2,6,3,3,0.750000,1.0,9.0,--,--,53.253014,3.0,53.938217,0.685203,7.0,55.77066,56.778496,3.525481,56.778675,57.540985
11,11,2,6,3,2,0.750000,1.0,10.0,--,--,58.07161,2.0,58.47627,0.40465832,5.0,60.587605,61.59877,3.5271592,61.59894,62.361603
12,12,2,6,3,3,0.750000,1.0,11.0,--,--,62.89085,3.0,63.51327,0.6224184,6.0,65.40791,66.41667,3.5258217,66.41686,67.18205
13,13,2,6,3,1,0.750000,1.0,12.0,--,--,67.710464,3.0,68.083626,0.37315732,2.0,70.226654,71.23732,3.5268514,71.23751,72.002884
14,14,2,6,3,3,0.750000,1.0,13.0,--,--,72.532646,3.0,72.937325,0.40467763,7.0,75.050125,76.05937,3.5267277,76.05955,76.823494
15,15,2,6,3,3,0.750000,1.0,14.0,--,--,77.35506,2.0,77.790985,0.43592745,1.0,79.87353,80.88239,3.5273333,80.88257,81.64369
16,16,2,6,3,3,8,1.0,15.0,--,--,82.171684,2.0,82.71184,0.5401537,1.0,84.68852,85.695366,3.523681,85.69556,93.70378
17,17,3,3,2,1,0.750000,1.0,16.0,--,--,93.78953,3.0,94.93859,1.149061,3.0,96.30646,97.316315,3.5267835,97.31649,98.07445
18,18,3,3,2,3,0.750000,1.0,17.0,--,--,98.14368,2.0,98.52474,0.38106096,4.0,100.66043,101.66906,3.525381,101.66925,102.42752
19,19,3,3,2,1,0.750000,1.0,18.0,--,--,102.496376,2.0,102.77883,0.28246102,7.0,105.01342,106.02231,3.525935,106.0225,106.78154
20,20,3,3,2,1,0.750000,1.0,19.0,--,--,106.850975,2.0,107.13322,0.28224728,6.0,109.366394,110.37427,3.5232959,110.37444,111.134796
21,21,3,3,2,1,0.750000,1.0,20.0,--,--,111.203575,2.0,111.51868,0.31510368,8.0,113.72038,114.72724,3.5236635,114.727425,115.488434
22,22,3,3,2,1,0.750000,1.0,21.0,--,--,115.55771,2.0,115.83857,0.2808662,8.0,118.07639,119.08423,3.526519,119.08442,119.84216
23,23,3,3,2,1,0.750000,1.0,22.0,--,--,119.91047,3.0,120.559845,0.6493753,1.0,122.427864,123.4352,3.5247374,123.435394,124.19532
24,24,3,3,2,3,8,1.0,23.0,--,--,124.26519,3.0,124.5463,0.28111404,8.0,126.78227,127.79213,3.526935,127.79232,135.80553
25,25,4,5,3,1,0.750000,1.0,24.0,--,--,136.44038,2.0,137.00775,0.56736594,8.0,138.95528,139.96512,3.524736,139.96532,140.72575
26,26,4,5,3,1,0.750000,1.0,25.0,--,--,141.43095,2.0,141.7107,0.2797505,8.0,143.94716,144.95389,3.5229313,144.95407,145.71317
27,27,4,5,3,3,0.750000,1.0,26.0,--,--,146.24481,2.0,146.54758,0.30276644,2.0,148.76224,149.77109,3.5262766,149.77127,150.53413
28,28,4,5,3,1,0.750000,1.0,27.0,--,--,151.0658,3.0,151.51811,0.45231035,3.0,153.58334,154.59308,3.527277,154.59328,155.35352
29,29,4,5,3,2,0.750000,1.0,28.0,--,--,155.94948,2.0,156.40685,0.4573764,5.0,158.46498,159.47467,3.5252042,159.47488,160.22528
30,30,4,5,3,1,0.750000,1.0,29.0,--,--,160.75685,2.0,161.39284,0.6359876,8.0,163.27492,164.2839,3.5270429,164.28409,165.04604
31,31,4,5,3,1,0.750000,1.0,30.0,--,--,165.57668,3.0,165.93011,0.3534309,2.0,168.09413,169.10172,3.5250309,169.10191,169.86652
32,32,4,5,3,1,10,1.0,31.0,--,--,170.39568,3.0,170.7173,0.32161987,4.0,172.9124,173.92097,3.525304,173.92116,183.9278
33,33,5,1,1,1,0.750000,1.0,32.0,--,--,183.9347,2.0,185.04604,1.1113453,6.0,186.45145,187.45988,3.5251951,187.46007,188.21469
34,34,5,1,1,2,0.750000,1.0,33.0,--,--,188.21709,3.0,188.61595,0.398853,5.0,190.73506,191.74332,3.5262213,191.74348,192.50168
35,35,5,1,1,1,0.750000,1.0,34.0,--,--,192.50433,2.0,192.96887,0.46454102,9.0,195.02104,196.03088,3.526552,196.03107,196.78853
36,36,5,1,1,2,0.750000,1.0,35.0,--,--,196.79102,3.0,197.17235,0.38133174,5.0,199.308,200.31577,3.524755,200.31595,201.07536
37,37,5,1,1,1,0.750000,1.0,36.0,--,--,201.07773,2.0,201.42566,0.34793139,9.0,203.59555,204.64586,3.5681174,204.64603,205.41245
38,38,5,1,1,1,0.750000,1.0,37.0,--,--,205.41483,3.0,205.96284,0.54802924,2.0,207.93236,208.93979,3.5249722,208.94,209.69926
39,39,5,1,1,1,0.750000,1.0,38.0,--,--,209.70168,3.0,210.0165,0.31483078,4.0,212.21994,213.22696,3.5252962,213.22716,213.98598
40,40,5,1,1,1,10,1.0,39.0,--,--,213.98883,3.0,214.30351,0.31468347,1.0,216.50664,217.51382,3.524989,217.51399,227.53043
41,41,6,4,2,3,0.750000,1.0,40.0,--,--,227.6249,2.0,228.61516,0.99027395,4.0,230.14185,231.15073,3.5258374,231.15091,231.9172
42,42,6,4,2,1,0.750000,1.0,41.0,--,--,232.00218,3.0,232.3511,0.34890825,4.0,234.52081,235.52988,3.5276935,235.53006,236.2876
43,43,6,4,2,3,0.750000,1.0,42.0,--,--,236.35683,3.0,236.67136,0.31454247,7.0,238.87482,239.88368,3.5268643,239.88387,240.64119
44,44,6,4,2,2,0.750000,1.0,43.0,--,--,240.71198,2.0,240.99178,0.2797994,5.0,243.22888,244.23868,3.526703,244.23886,244.99486
45,45,6,4,2,3,0.750000,1.0,44.0,--,--,245.06358,2.0,245.32887,0.2652866,4.0,247.58037,248.58963,3.5260363,248.58981,249.3483
46,46,6,4,2,3,0.750000,1.0,45.0,--,--,249.41646,2.0,250.11653,0.70006484,3.0,251.93277,252.94035,3.5238907,252.94055,253.70232
47,47,6,4,2,3,0.750000,1.0,46.0,--,--,253.7718,3.0,254.06897,0.29717246,6.0,256.28894,257.29642,3.5246258,257.2966,258.05554
48,48,6,4,2,3,8,1.0,47.0,--,--,258.12448,3.0,258.47278,0.3483051,7.0,260.64175,261.6486,3.5241237,261.64877,269.66534
49,49,7,1,1,1,0.750000,1.0,48.0,--,--,269.6714,2.0,270.36597,0.6945858,8.0,272.18872,273.19757,3.526163,273.19775,273.9518
50,50,7,1,1,1,0.750000,1.0,49.0,--,--,273.9542,2.0,274.27026,0.31609774,9.0,276.46866,277.4755,3.521327,277.4757,278.23868
51,51,7,1,1,1,0.750000,1.0,50.0,--,--,278.2411,2.0,278.55624,0.3151719,9.0,280.75766,281.7645,3.523419,281.76468,282.5257
52,52,7,1,1,1,0.750000,1.0,51.0,--,--,282.5281,2.0,282.9599,0.43180296,9.0,285.04465,286.05148,3.5233815,286.05167,286.8123
53,53,7,1,1,2,0.750000,1.0,52.0,--,--,286.81458,2.0,287.16354,0.34899125,5.0,289.33203,290.34146,3.5269094,290.34167,291.09918
54,54,7,1,1,3,0.750000,1.0,53.0,--,--,291.10162,3.0,291.44986,0.3482076,9.0,293.6186,294.62744,3.525797,294.62762,295.38696
55,55,7,1,1,1,0.750000,1.0,54.0,--,--,295.38947,2.0,295.7037,0.31425962,6.0,297.90533,298.9154,3.5259476,298.9156,299.67303
56,56,7,1,1,1,12,1.0,55.0,--,--,299.67545,3.0,300.1071,0.43163967,4.0,302.19257,303.1994,3.5239623,303.1996,315.20248
57,57,8,2,1,3,0.750000,1.0,56.0,--,--,315.20486,2.0,315.703,0.49816084,4.0,317.72144,318.73035,3.525495,318.7305,319.4895
58,58,8,2,1,3,0.750000,1.0,57.0,--,--,319.49185,2.0,319.93997,0.4481258,1.0,322.00803,323.01535,3.523486,323.01553,323.77606
59,59,8,2,1,2,0.750000,1.0,58.0,--,--,323.77844,3.0,324.19348,0.41503578,5.0,326.29504,327.3043,3.525857,327.30447,328.06293
60,60,8,2,1,3,0.750000,1.0,59.0,--,--,328.0652,3.0,328.431,0.36582726,9.0,330.58243,331.59128,3.526093,331.59146,332.34955
61,61,8,2,1,3,0.750000,1.0,60.0,--,--,332.352,2.0,332.66748,0.31550273,2.0,334.86884,335.8758,3.523808,335.87598,336.6365
62,62,8,2,1,3,0.750000,1.0,61.0,--,--,336.63885,3.0,337.05475,0.41589913,8.0,339.15637,340.1635,3.52464,340.1637,340.92328
63,63,8,2,1,2,0.750000,1.0,62.0,--,--,340.9256,2.0,341.19064,0.26503846,5.0,343.4422,344.45126,3.5256765,344.45145,345.21045
64,64,8,2,1,3,12,1.0,63.0,--,--,345.21283,2.0,345.51086,0.29802072,3.0,347.72934,348.7382,3.525353,348.7384,360.73987
65,65,9,3,2,1,0.750000,1.0,64.0,--,--,360.83926,3.0,361.54108,0.7018133,4.0,363.35727,364.36713,3.5278776,364.3673,365.12662
66,66,9,3,2,1,0.750000,1.0,65.0,--,--,365.21133,2.0,365.4774,0.26605695,7.0,367.72852,368.7361,3.5247688,368.7363,369.49667
67,67,9,3,2,1,0.750000,1.0,66.0,--,--,369.56595,2.0,369.84863,0.28267595,6.0,372.08325,373.09012,3.5241868,373.09033,373.85037
68,68,9,3,2,1,0.750000,1.0,67.0,--,--,373.91977,3.0,374.31796,0.3982076,1.0,376.437,377.4441,3.5243373,377.44427,378.2042
69,69,9,3,2,1,0.750000,1.0,68.0,--,--,378.2725,3.0,378.50595,0.23347226,3.0,380.78854,381.79575,3.5232506,381.79593,382.558
70,70,9,3,2,3,0.750000,1.0,69.0,--,--,382.62753,2.0,382.70828,0.080754764,2.0,385.1442,386.1535,3.5259712,386.1537,386.91183
71,71,9,3,2,1,0.750000,1.0,70.0,--,--,386.98145,2.0,387.512,0.5305665,6.0,389.49854,390.508,3.5265596,390.50818,391.26474
72,72,9,3,2,3,12,1.0,71.0,--,--,391.33447,2.0,391.7327,0.39823174,2.0,393.85114,394.86002,3.5255532,394.8602,406.86105
