TrialNumber,Trialn,Blockn,BlockType,Partner,Feedback,ITI,ran,order,studyStart,InitFixOnset,decision_onset,resp,resp_onset,rt,outcome_val,outcome_onset,outcome_offset,trialDuration,ITIonset,ITIoffset
1,1,1,2,1,3,0.750000,1.0,0.0,2.5001355e-06,0.010128001,4.0169854,2.0,5.021795,1.0048094,3.0,6.536313,7.544107,3.5271213,7.5443106,8.305853
2,2,1,2,1,1,0.750000,1.0,1.0,--,--,8.307607,2.0,8.656119,0.3485128,6.0,10.824456,11.83208,3.5244732,11.832243,12.589044
3,3,1,2,1,3,0.750000,1.0,2.0,--,--,12.590679,2.0,12.88948,0.2988004,4.0,15.107498,16.114038,3.5233588,16.114197,16.872276
4,4,1,2,1,3,0.750000,1.0,3.0,--,--,16.87391,2.0,17.205482,0.331572,4.0,19.391466,20.396223,3.5223122,20.396387,21.155748
5,5,1,2,1,3,0.750000,1.0,4.0,--,--,21.157333,2.0,21.506453,0.3491192,1.0,23.674334,24.68008,3.5227456,24.680243,25.439476
6,6,1,2,1,3,0.750000,1.0,5.0,--,--,25.441153,2.0,25.72183,0.2806782,3.0,27.959457,28.965069,3.5239172,28.96523,29.722486
7,7,1,2,1,1,0.750000,1.0,6.0,--,--,29.724127,2.0,30.055141,0.3310156,9.0,32.24134,33.248077,3.5239525,33.24824,34.00611
8,8,1,2,1,3,8,1.0,7.0,--,--,34.00775,2.0,34.472492,0.4647399,2.0,36.52401,37.53008,3.5223258,37.530243,45.539368
9,9,2,1,1,1,0.750000,1.0,8.0,--,--,45.541035,2.0,45.921524,0.380486,6.0,48.059345,49.06507,3.5240364,49.065235,49.822575
10,10,2,1,1,1,0.750000,1.0,9.0,--,--,49.824207,2.0,50.489788,0.665582,8.0,52.34133,53.347095,3.5228899,53.347256,54.105812
11,11,2,1,1,1,0.750000,1.0,10.0,--,--,54.107548,2.0,54.522503,0.4149522,7.0,56.624504,57.629074,3.5215266,57.629242,58.389004
12,12,2,1,1,2,0.750000,1.0,11.0,--,--,58.391132,2.0,58.95601,0.5648768,5.0,60.90747,61.913773,3.5226395,61.91392,62.67223
13,13,2,1,1,3,0.750000,1.0,12.0,--,--,62.67385,2.0,63.172497,0.4986447,1.0,65.19165,66.19668,3.5228243,66.196846,66.95575
14,14,2,1,1,1,0.750000,1.0,13.0,--,--,66.95739,2.0,67.3727,0.4153088,7.0,69.473366,70.47779,3.520394,70.477936,71.23912
15,15,2,1,1,1,0.750000,1.0,14.0,--,--,71.24075,2.0,71.789474,0.5487167,6.0,73.75841,74.76325,3.5225003,74.76342,75.52224
16,16,2,1,1,1,12,1.0,15.0,--,--,75.523895,2.0,76.4225,0.8986067,7.0,78.04141,79.04587,3.5219767,79.04603,91.05604
17,17,3,6,3,3,0.750000,1.0,16.0,--,--,91.222244,2.0,91.5883,0.3660541,2.0,93.7398,94.74512,3.5228717,94.74529,95.506035
18,18,3,6,3,3,0.750000,1.0,17.0,--,--,95.66346,2.0,95.97167,0.3082075,1.0,98.182434,99.18672,3.523257,99.18688,99.93914
19,19,3,6,3,3,0.750000,1.0,18.0,--,--,100.09579,2.0,100.3893,0.2935146,3.0,102.61139,103.615074,3.519284,103.61521,104.372185
20,20,3,6,3,3,0.750000,1.0,19.0,--,--,104.52951,2.0,104.82261,0.293101,2.0,107.04536,108.0501,3.5205946,108.05028,108.80556
21,21,3,6,3,3,0.750000,1.0,20.0,--,--,108.95983,2.0,109.20602,0.246185,3.0,111.476395,112.48109,3.5212543,112.48125,113.23917
22,22,3,6,3,3,0.750000,1.0,21.0,--,--,113.393524,2.0,113.88941,0.4958916,2.0,115.9104,116.915085,3.5215604,116.915245,117.67221
23,23,3,6,3,2,0.750000,1.0,22.0,--,--,117.82646,2.0,118.73855,0.9120811,5.0,120.34437,121.34969,3.5232322,121.349846,122.10568
24,24,3,6,3,2,8,1.0,23.0,--,--,122.258545,2.0,123.771645,1.513101,5.0,124.77639,125.78077,3.5222292,125.78094,133.78915
25,25,4,4,2,2,0.750000,1.0,24.0,--,--,133.98361,2.0,134.33821,0.3545964,5.0,136.50235,137.5071,3.5234835,137.50725,138.27214
26,26,4,4,2,3,0.750000,1.0,25.0,--,--,138.45996,2.0,138.73924,0.2792808,3.0,140.97734,141.9831,3.5231397,141.98326,142.73903
27,27,4,4,2,3,0.750000,1.0,26.0,--,--,142.92673,2.0,144.03796,1.1112401,1.0,145.44493,146.44893,3.5222068,146.4491,147.20566
28,28,4,4,2,3,0.750000,1.0,27.0,--,--,147.39519,2.0,147.83914,0.4439556,3.0,149.91202,150.9161,3.5209072,150.91624,151.67216
29,29,4,4,2,3,0.750000,1.0,28.0,--,--,151.86499,2.0,152.30592,0.4409302,4.0,154.38222,155.38538,3.5203896,155.38554,156.139
30,30,4,4,2,1,0.750000,1.0,29.0,--,--,156.3324,2.0,156.7393,0.406898,6.0,158.85037,159.85611,3.5237105,159.85628,160.62184
31,31,4,4,2,3,0.750000,1.0,30.0,--,--,160.81303,2.0,161.18925,0.3762136,1.0,163.33043,164.3361,3.5230703,164.33627,165.089
32,32,4,4,2,3,12,1.0,31.0,--,--,165.27798,2.0,165.80595,0.5279782,1.0,167.79535,168.79974,3.5217712,168.79996,180.8059
33,33,5,5,3,1,0.750000,1.0,32.0,--,--,180.96501,0.0,999.0,999.0,999.0,183.47198,184.48843,3.523427,184.4886,185.23903
34,34,5,5,3,1,0.750000,1.0,33.0,--,--,185.3947,2.0,186.00507,0.6103671,9.0,187.91336,188.91862,3.5239248,188.9188,189.67213
35,35,5,5,3,1,0.750000,1.0,34.0,--,--,189.82996,2.0,190.17278,0.3428126,6.0,192.34668,193.35011,3.5201542,193.35027,194.10564
36,36,5,5,3,1,0.750000,1.0,35.0,--,--,194.2605,2.0,194.539,0.2784963,9.0,196.77846,197.78308,3.522588,197.78325,198.53893
37,37,5,5,3,1,0.750000,1.0,36.0,--,--,198.69238,3.0,198.95512,0.2627475,2.0,201.21037,202.21478,3.522397,202.21494,202.97217
38,38,5,5,3,1,0.750000,1.0,37.0,--,--,203.12555,3.0,203.37254,0.2469932,4.0,205.64235,206.64618,3.520623,206.64632,207.40536
39,39,5,5,3,2,0.750000,1.0,38.0,--,--,207.5605,3.0,207.87166,0.3111606,5.0,210.07834,211.08371,3.5232048,211.08388,211.83862
40,40,5,5,3,2,8,1.0,39.0,--,--,211.99211,3.0,212.1891,0.1969936,5.0,214.50903,215.5141,3.5219903,215.51425,223.52217
41,41,6,3,2,1,0.750000,1.0,40.0,--,--,223.70828,2.0,224.18929,0.4809955,8.0,226.22636,227.23198,3.523696,227.23213,227.98886
42,42,6,3,2,1,0.750000,1.0,41.0,--,--,228.17221,3.0,228.4225,0.2502922,2.0,230.68858,231.69208,3.5198696,231.69225,232.45526
43,43,6,3,2,1,0.750000,1.0,42.0,--,--,232.64009,2.0,232.88905,0.2489493,8.0,235.15758,236.16173,3.5216255,236.1619,236.92216
44,44,6,3,2,1,0.750000,1.0,43.0,--,--,237.10846,3.0,237.37166,0.2632038,3.0,239.62637,240.63113,3.5226762,240.6313,241.38882
45,45,6,3,2,2,0.750000,1.0,44.0,--,--,241.57822,2.0,242.17245,0.5942274,5.0,244.09438,245.09909,3.5208752,245.09924,245.8553
46,46,6,3,2,1,0.750000,1.0,45.0,--,--,246.03775,3.0,246.30518,0.2674261,3.0,248.55548,249.56111,3.5233674,249.56128,250.32239
47,47,6,3,2,1,0.750000,1.0,46.0,--,--,250.51425,3.0,250.90538,0.391125,1.0,253.03033,254.03511,3.5208473,254.03526,254.78883
48,48,6,3,2,2,10,1.0,47.0,--,--,254.97473,3.0,255.48834,0.5136106,5.0,257.49323,258.49857,3.5238192,258.49872,268.50552
49,49,7,2,1,3,0.750000,1.0,48.0,--,--,268.50964,3.0,269.03796,0.5283276,6.0,271.02838,272.0337,3.5240366,272.03384,272.78882
50,50,7,2,1,2,0.750000,1.0,49.0,--,--,272.7905,3.0,273.37146,0.5809769,5.0,275.30936,276.31476,3.5242853,276.31494,277.07214
51,51,7,2,1,3,0.750000,1.0,50.0,--,--,277.07382,2.0,278.3544,1.2805833,3.0,279.59235,280.59903,3.5252106,280.59918,281.35547
52,52,7,2,1,3,0.750000,1.0,51.0,--,--,281.3572,2.0,281.93832,0.5810993,3.0,283.87534,284.8796,3.522391,284.8798,285.63876
53,53,7,2,1,2,0.750000,1.0,52.0,--,--,285.6404,2.0,287.22116,1.5807482,5.0,288.1584,289.1641,3.5236828,289.16425,289.92215
54,54,7,2,1,3,0.750000,1.0,53.0,--,--,289.9238,2.0,290.2047,0.2809004,4.0,292.44238,293.4481,3.524288,293.44824,294.20523
55,55,7,2,1,3,0.750000,1.0,54.0,--,--,294.20694,2.0,294.48825,0.2813054,3.0,296.72513,297.73108,3.5241556,297.73123,298.4886
56,56,7,2,1,3,10,1.0,55.0,--,--,298.49033,2.0,298.78934,0.2989967,3.0,301.0074,302.0111,3.5207937,302.0113,312.0223
57,57,8,1,1,2,0.750000,1.0,56.0,--,--,312.02405,2.0,312.5725,0.5484854,5.0,314.54117,315.5461,3.522087,315.54626,316.30518
58,58,8,1,1,1,0.750000,1.0,57.0,--,--,316.3069,2.0,316.90567,0.5987966,6.0,318.82437,319.82974,3.522874,319.82993,320.5887
59,59,8,1,1,1,0.750000,1.0,58.0,--,--,320.5904,2.0,321.5052,0.9147897,6.0,323.10745,324.11377,3.5233665,324.11392,324.8721
60,60,8,1,1,1,0.750000,1.0,59.0,--,--,324.87378,2.0,325.48904,0.6152524,8.0,327.38937,328.3932,3.5193827,328.39334,329.15515
61,61,8,1,1,3,0.750000,1.0,60.0,--,--,329.15683,2.0,329.4382,0.2813566,1.0,331.67435,332.68112,3.5242746,332.68127,333.4385
62,62,8,1,1,1,0.750000,1.0,61.0,--,--,333.44012,2.0,333.8051,0.3649847,8.0,335.95752,336.9621,3.5219696,336.96228,337.72208
63,63,8,1,1,1,0.750000,1.0,62.0,--,--,337.72372,2.0,338.2723,0.54859,8.0,340.2411,341.2471,3.523366,341.24725,342.00516
64,64,8,1,1,1,12,1.0,63.0,--,--,342.00687,2.0,342.72272,0.715853,7.0,344.52304,345.52625,3.5193834,345.5264,357.53897
65,65,9,3,2,1,0.750000,1.0,64.0,--,--,357.72806,2.0,358.13904,0.4109605,7.0,360.24646,361.2521,3.5240338,361.25226,362.0052
66,66,9,3,2,1,0.750000,1.0,65.0,--,--,362.19193,3.0,362.35468,0.1627436,2.0,364.70935,365.71576,3.5238347,365.7159,366.47202
67,67,9,3,2,1,0.750000,1.0,66.0,--,--,366.66058,2.0,367.9554,1.2948323,9.0,369.17773,370.18115,3.5205624,370.18127,370.93863
68,68,9,3,2,3,0.750000,1.0,67.0,--,--,371.1233,2.0,371.33795,0.2146759,4.0,373.64136,374.64816,3.5248866,374.64835,375.40518
69,69,9,3,2,1,0.750000,1.0,68.0,--,--,375.5915,2.0,375.7726,0.1811234,7.0,378.1081,379.11426,3.5227516,379.1144,379.87198
70,70,9,3,2,1,0.750000,1.0,69.0,--,--,380.0609,2.0,380.2389,0.1779667,6.0,382.57837,383.58395,3.5230365,383.5841,384.3389
71,71,9,3,2,2,0.750000,1.0,70.0,--,--,384.52747,3.0,385.17212,0.6446616,5.0,387.04437,388.0491,3.521634,388.04926,388.8054
72,72,9,3,2,1,10,1.0,71.0,--,--,388.99423,2.0,389.27203,0.2778074,7.0,391.51236,392.51852,3.5242956,392.5187,402.52164
