onset	duration	trial_type	rt	resp	gender
0.7341559196356684	3.0065902101341635	decision	2.566071602748707	left	B
4.283948668045923	1.0000848267227411	loss	n/a	n/a	n/a
11.334300939925015	3.007178562460467	decision	1.7997193175833672	left	B
14.88444476784207	1.0162184794899076	win	n/a	n/a	n/a
21.950829262845218	3.006474894238636	decision	2.066235369304195	left	B
25.50069114030339	1.000161200761795	loss	n/a	n/a	n/a
32.56739713111892	3.0072054292540997	decision	1.8125435265246779	right	B
36.117336590308696	1.0168370192404836	loss	n/a	n/a	n/a
38.96739731216803	3.007037285482511	decision	1.5486833618488163	left	B
42.517269453499466	1.016882904106751	loss	n/a	n/a	n/a
45.3342230564449	3.0071453561540693	decision	1.7998847444541752	right	B
48.88407678343356	1.0166000481694937	win	n/a	n/a	n/a
51.75081664440222	3.00670945039019	decision	1.550407967530191	right	B
55.30056048929691	1.0000413567759097	win	n/a	n/a	n/a
60.23414037306793	3.0073557624127716	decision	1.5497888242825866	left	B
63.783956365892664	1.0001376545988023	loss	n/a	n/a	n/a
68.71730682556517	3.0072648983914405	decision	1.81287347455509	right	B
72.26738786371425	1.016525787068531	win	n/a	n/a	n/a
75.15076369582675	3.0066816778853536	decision	1.5492880151141435	left	B
78.7005555385258	1.0000682235695422	win	n/a	n/a	n/a
83.63407987775281	3.0074897943995893	decision	1.7995167600456625	right	B
87.18412559642456	1.016669177217409	loss	n/a	n/a	n/a
94.25074434559792	3.0071897318121046	decision	1.5497553162276745	left	B
97.80054675415158	1.000095693860203	loss	n/a	n/a	n/a
104.83424433856271	3.007243163418025	decision	1.7994174435734749	left	B
108.38415572349913	1.0164880529046059	win	n/a	n/a	n/a
115.45096555887721	3.0070279273204505	decision	1.7992209238000214	left	B
119.0007045737002	1.0165336360223591	win	n/a	n/a	n/a
123.95065659098327	3.0076005819719285	decision	1.7995327594690025	left	B
127.50067604659125	1.000070940470323	win	n/a	n/a	n/a
130.3507002419792	3.006643339758739	decision	1.8111781505867839	left	B
133.9004905752372	1.0002493478823453	win	n/a	n/a	n/a
136.68428121251054	3.0071900335606188	decision	1.8118821205571294	left	B
140.23404920729809	1.0001050520222634	loss	n/a	n/a	n/a
143.21731120278127	3.006366823334247	decision	1.812088904203847	right	B
146.76750936778262	1.0164901660755277	loss	n/a	n/a	n/a
155.91750811506063	3.006669904803857	decision	2.315334803890437	right	B
159.46737361513078	1.0170419916976243	loss	n/a	n/a	n/a
164.45084692235105	3.00702188978903	decision	1.8127557439729571	left	B
168.00065023638308	1.0000129805412143	win	n/a	n/a	n/a
170.85085344291292	3.006897215731442	decision	2.0666519552469254	right	B
174.4006039290689	1.0001038445625454	loss	n/a	n/a	n/a
181.4508436017204	3.0072673133108765	decision	1.8008957204874605	left	B
185.00068525387906	1.0166287261527032	loss	n/a	n/a	n/a
187.85083110420965	3.0079187573865056	decision	1.5495479286182672	left	B
191.40074218716472	1.0166214811615646	win	n/a	n/a	n/a
194.21758379484527	3.007801630301401	decision	1.5495307219680399	right	B
197.76746740750968	1.0001168251037598	win	n/a	n/a	n/a
204.81765847862698	3.0064347449224442	decision	2.067135255318135	left	B
208.36743009579368	1.0167832856532186	loss	n/a	n/a	n/a
215.4174995117355	3.006749297492206	decision	1.8116566208191216	left	B
218.96745557384565	1.0000075469724834	loss	n/a	n/a	n/a
223.90081237303093	3.0079628308303654	decision	1.8119316278025508	left	B
227.45083031943068	1.0164886566344649	loss	n/a	n/a	n/a
230.31762995151803	3.006530740763992	decision	1.5502054099924862	right	B
233.86766027472913	1.016540277050808	loss	n/a	n/a	n/a
240.93455161596648	3.006472781067714	decision	2.066143599804491	left	B
244.48444790719077	0.999998792540282	loss	n/a	n/a	n/a
247.350971928332	3.00716739310883	decision	2.0668511921539903	left	B
250.9007815818768	1.0165511444211006	win	n/a	n/a	n/a
253.78450788953342	3.0072987081948668	decision	1.5492991846986115	left	B
257.3342870536726	1.0163833026308566	loss	n/a	n/a	n/a
260.16764810914174	3.0063997276593	decision	1.5504351363051683	right	B
263.71767179109156	1.016646235017106	win	n/a	n/a	n/a
268.70100774569437	3.007820648374036	decision	1.8125051886308938	right	B
272.25089498073794	1.016501335427165	win	n/a	n/a	n/a
275.10095630655997	3.0073802140541375	decision	1.8119675507768989	right	B
278.6508236178197	1.0167500793468207	win	n/a	n/a	n/a
283.5845233455766	3.0063139954581857	decision	1.7992909585591406	right	B
287.1345714794006	1.01612520031631	win	n/a	n/a	n/a
294.23459499538876	3.0071761473082006	decision	1.8116258296649903	right	B
297.7842669941019	1.0000437719281763	win	n/a	n/a	n/a
304.8509545705747	3.006799408700317	decision	1.549493289552629	left	B
308.4008925205562	1.0167162695433944	win	n/a	n/a	n/a
311.28448389074765	3.007020984077826	decision	1.5496991674881428	right	B
314.834472253453	1.0163510020356625	loss	n/a	n/a	n/a
317.68429117440246	3.006609227973968	decision	1.799580153543502	right	B
321.23438851349056	1.016448809299618	win	n/a	n/a	n/a
326.21760583180003	3.0070668689440936	decision	1.5497845977079123	left	B
329.7677855824586	1.0164533373899758	loss	n/a	n/a	n/a
336.83447014028206	3.0074297215323895	decision	2.066421021707356	right	B
340.38450016174465	1.0163902456406504	win	n/a	n/a	n/a
347.46793630812317	3.0073388575110584	decision	2.065960060339421	left	B
351.01765117328614	1.0166075949091464	win	n/a	n/a	n/a
364.4012173367664	3.0070795477367938	decision	1.799703016411513	left	B
367.9509572573006	1.0000836190301925	loss	n/a	n/a	n/a
372.9178389690351	3.0068845371715724	decision	2.0670914836227894	right	B
376.4676308117341	1.0000205275136977	win	n/a	n/a	n/a
381.4178810804151	3.006253016879782	decision	2.3160553770139813	left	B
384.9677903521806	1.0166758184786886	loss	n/a	n/a	n/a
389.93448158120736	3.006894499063492	decision	1.800504793645814	left	B
393.4848515128251	1.0161140309646726	loss	n/a	n/a	n/a
400.58459941786714	3.007368440972641	decision	2.316142014693469	right	B
404.13442808925174	1.0000959958415478	loss	n/a	n/a	n/a
406.9678594812285	3.006397010758519	decision	2.066198540851474	right	B
410.51766762533225	1.0167512870393693	loss	n/a	n/a	n/a
417.56775726680644	3.0067550332751125	decision	1.7991593414917588	left	B
421.1179472813383	1.0164735629223287	win	n/a	n/a	n/a
423.9678854425438	3.006736014969647	decision	2.0664261535275728	left	B
427.51786414533854	1.016562313772738	loss	n/a	n/a	n/a
432.434554181993	3.006449536886066	decision	1.5494135946501046	right	B
435.9847499320749	1.0161324455402792	loss	n/a	n/a	n/a
438.8513575724792	3.006421160651371	decision	1.7991170790046453	right	B
442.40092814154923	1.016685780370608	win	n/a	n/a	n/a
445.234700047411	3.0071942599024624	decision	1.5491905100643635	right	B
448.7846473553218	1.0162664775270969	win	n/a	n/a	n/a
451.63479984691367	3.00623218761757	decision	1.7991418328601867	left	B
455.1845038444735	1.0167929455637932	win	n/a	n/a	n/a
460.15115613187663	3.0064601025078446	decision	2.066086243605241	right	B
463.70106842252426	1.0166085003875196	win	n/a	n/a	n/a
468.6680877886247	3.0069415911566466	decision	1.5495533624198288	left	B
472.2179599299561	1.01632413524203	loss	n/a	n/a	n/a
479.33483948302455	3.006531646475196	decision	1.7991665864828974	right	B
482.8845163118094	1.0165638234466314	loss	n/a	n/a	n/a
487.8179410325829	3.0070351720787585	decision	2.3160771117545664	left	B
491.367622993188	1.016871432773769	loss	n/a	n/a	n/a
494.23465808690526	3.0063544465228915	decision	2.832549618324265	left	B
497.78456132137217	1.016381491208449	win	n/a	n/a	n/a
500.63475516973995	3.007318028016016	decision	2.3159506265074015	right	B
504.1843767554965	1.0165146179497242	win	n/a	n/a	n/a
