onset	duration	trial_type	rt	resp	gender
0.7322408957406878	3.0069708479568362	decision	1.81667201500386	left	B
4.282305753324181	1.0168342411052436	loss	n/a	n/a	n/a
11.365554134594277	3.0082133563701063	decision	2.3159452558029443	left	B
14.915550466859713	1.0002644404303282	win	n/a	n/a	n/a
21.9821620315779	3.006107491441071	decision	1.5500588198192418	left	B
25.53256408101879	1.0162413630168885	loss	n/a	n/a	n/a
32.615530512994155	3.007893069414422	decision	1.809719883138314	right	B
36.16579853068106	1.0163606028072536	loss	n/a	n/a	n/a
39.015458908630535	3.008014120394364	decision	2.065931143471971	left	B
42.56542626116425	1.016475012525916	loss	n/a	n/a	n/a
45.398775845300406	3.007144726580009	decision	1.8100353402551264	right	B
48.948814439820126	1.0000984105281532	win	n/a	n/a	n/a
51.79874771088362	3.0074945972301066	decision	2.0663978387601674	right	B
55.348287913249806	1.0002366681583226	win	n/a	n/a	n/a
60.298866195837036	3.0074595799669623	decision	1.5494828466325998	left	B
63.8485772581771	1.0166199116501957	loss	n/a	n/a	n/a
68.7825141963549	3.0076316476333886	decision	1.809755202382803	left	B
72.33215250750072	1.0166386277414858	win	n/a	n/a	n/a
75.21533767646179	3.0063752527348697	decision	1.8101213742047548	left	B
78.76523107010871	1.0000286779832095	win	n/a	n/a	n/a
83.6989277175162	3.0065844506025314	decision	1.8103423449210823	right	B
87.24861372448504	1.0166624756529927	loss	n/a	n/a	n/a
94.33190889609978	3.0073548301588744	decision	1.816352935275063	right	B
97.88218506448902	1.016271248459816	loss	n/a	n/a	n/a
104.94866833323613	3.006225523771718	decision	1.5501804747618735	left	B
108.4984246767126	1.0002864771522582	win	n/a	n/a	n/a
115.54851141991094	3.005932103144005	decision	2.06600389466621	left	B
119.09859227645211	1.0164837669581175	win	n/a	n/a	n/a
124.04876091773622	3.006107491441071	decision	1.5502052281517535	left	B
127.59869506419636	1.0000244516413659	win	n/a	n/a	n/a
130.46508704661392	3.007491276599467	decision	1.809210019884631	right	B
134.015015457524	1.0002137259580195	win	n/a	n/a	n/a
136.8152206102386	3.007967028301209	decision	1.8098699140828103	left	B
140.3655970003456	1.0159117178991437	loss	n/a	n/a	n/a
143.21516711846925	3.006938547361642	decision	1.5494822426699102	right	B
146.76535513997078	1.0162045345641673	loss	n/a	n/a	n/a
155.9318386199884	3.005960479611531	decision	1.8100208505056798	left	B
159.48180536879227	1.0165522920433432	loss	n/a	n/a	n/a
164.48172356118448	3.006323632551357	decision	2.067354172002524	left	B
168.03186871670187	1.0164798425976187	win	n/a	n/a	n/a
170.89866400137544	3.0080684574786574	decision	1.8099499102681875	right	B
174.44881096831523	1.016249815467745	loss	n/a	n/a	n/a
181.5151248862967	3.007885824656114	decision	2.3168874012771994	right	B
185.06502431747504	1.0002351589500904	loss	n/a	n/a	n/a
187.89834552560933	3.0066828611306846	decision	1.2996564989443868	left	B
191.44860750599764	1.0159757148940116	win	n/a	n/a	n/a
194.26552403788082	3.0064652108121663	decision	2.315099709900096	right	B
197.81533260503784	1.016103105386719	win	n/a	n/a	n/a
204.88210204942152	3.00783148733899	decision	1.7998948274180293	left	B
208.43152814381756	1.0002472340129316	loss	n/a	n/a	n/a
215.46499920170754	3.0067281420342624	decision	1.5494279055856168	right	B
219.0148237682879	1.016981253400445	loss	n/a	n/a	n/a
223.9651022912003	3.0067864034790546	decision	1.2993165901862085	left	B
227.515495586209	1.0163240763358772	loss	n/a	n/a	n/a
230.36497182166204	3.006936736404896	decision	1.8169071739539504	left	B
233.9148634041194	1.0168903896119446	loss	n/a	n/a	n/a
240.98142848047428	3.0074577687773854	decision	2.066948756808415	left	B
244.53163552004844	1.0000863356981426	loss	n/a	n/a	n/a
247.39827443449758	3.007588781649247	decision	1.2994485085364431	right	B
250.9484624559991	1.0163796208798885	win	n/a	n/a	n/a
253.81530030467547	3.00649419054389	decision	1.8165210783481598	left	B
257.36542251799256	1.0164493534248322	loss	n/a	n/a	n/a
260.19846389000304	3.0063595552928746	decision	2.066367047606036	right	B
263.748034581542	1.000104749808088	win	n/a	n/a	n/a
268.69831431191415	3.007339434698224	decision	1.810469433432445	left	B
272.2484223372303	1.01621208130382	win	n/a	n/a	n/a
275.0981183361728	3.0066662579774857	decision	2.3161858485545963	left	B
278.6479700712953	1.016858089249581	win	n/a	n/a	n/a
283.565089069074	3.007053863024339	decision	1.549659140408039	right	B
287.11459787678905	1.0004706198815256	win	n/a	n/a	n/a
294.19828699249774	3.0082492793444544	decision	1.815969254821539	left	B
297.74828000413254	1.0165679894853383	win	n/a	n/a	n/a
304.8317083015572	3.0079999323934317	decision	1.8156347798649222	right	B
308.381186921848	1.0002427056897432	win	n/a	n/a	n/a
311.24812740739435	3.007549236062914	decision	2.0655402180273086	left	B
314.798334748717	1.0164511646144092	loss	n/a	n/a	n/a
317.6314401177224	3.0066858797799796	decision	1.8102176715619862	right	B
321.1812218183186	1.0000024151522666	win	n/a	n/a	n/a
326.13139378023334	3.0072114404756576	decision	1.5495263163466007	left	B
329.6813695852179	1.0165393115021288	loss	n/a	n/a	n/a
336.74827728723176	3.006694935960695	decision	1.8163384452927858	left	B
340.29774624761194	1.0001578794326633	win	n/a	n/a	n/a
347.34806996094994	3.0063577441032976	decision	2.066502588801086	right	B
350.8982151164673	1.016191554022953	win	n/a	n/a	n/a
364.2814411893487	3.0072398164775223	decision	1.8104380387812853	left	B
367.8312886983622	1.0165018793195486	loss	n/a	n/a	n/a
372.7978659402579	3.0065020392648876	decision	1.2996269152499735	right	B
376.3479498154484	1.0167527357116342	win	n/a	n/a	n/a
381.29818034078926	3.0078384303487837	decision	1.8097238074988127	left	B
384.84791042120196	1.017427421407774	loss	n/a	n/a	n/a
389.7979851800483	3.007487050257623	decision	2.0664799481164664	right	B
393.34813727857545	1.0162081569433212	loss	n/a	n/a	n/a
400.4314683729317	3.007995404303074	decision	2.3158522793091834	left	B
403.98153383424506	1.0167089640162885	loss	n/a	n/a	n/a
406.81446079630405	3.0067909315694124	decision	1.7996886484324932	right	B
410.3643249082379	1.001198435202241	loss	n/a	n/a	n/a
417.3981760239694	3.0072159685660154	decision	2.065226572100073	left	B
420.9479643658269	1.0163805263582617	win	n/a	n/a	n/a
423.7981672093738	3.0071586125995964	decision	2.065248608822003	right	B
427.34810558194295	1.016513652401045	loss	n/a	n/a	n/a
432.28118550311774	3.0071918186731637	decision	1.8107528919354081	right	B
435.83112146076746	1.0163249818142503	loss	n/a	n/a	n/a
438.6978524464648	3.0061745073180646	decision	1.3004141997080296	left	B
442.2475526414346	1.000180218135938	win	n/a	n/a	n/a
445.0644389858935	3.0069056435022503	decision	2.066034384071827	right	B
448.614488146035	1.0168475236278027	win	n/a	n/a	n/a
451.46443017129786	3.006880889646709	decision	1.5498837337363511	left	B
455.0143347342964	1.0164786351379007	win	n/a	n/a	n/a
459.98113838071004	3.006327254930511	decision	1.7991027131211013	right	B
463.53099615336396	1.0163280004635453	win	n/a	n/a	n/a
468.49756524455734	3.0075754991266876	decision	1.5496838940307498	left	B
472.0471863488201	1.000993765424937	loss	n/a	n/a	n/a
479.1480064468924	3.0072114404756576	decision	1.8162342992145568	right	B
482.69790104799904	1.0161160856951028	loss	n/a	n/a	n/a
487.6154324042145	3.007013713940978	decision	1.8147587447892874	left	B
491.1642239619978	1.0167756779119372	loss	n/a	n/a	n/a
494.01408116100356	3.0067462543956935	decision	1.549564654007554	right	B
497.56410436006263	1.016637118300423	win	n/a	n/a	n/a
500.3976918198168	3.006492379354313	decision	1.2994934876915067	left	B
503.94755472429097	1.0163877713494003	win	n/a	n/a	n/a
