onset	duration	trial_type	rt	resp	gender
0.599850700004026	3.00313019996975	decision	1.78317239996977	right	B
4.14985449996311	1.0166237000376	loss	NaN	n/a	n/a
11.0827666999539	3.00446730002295	decision	2.28292379999766	left	B
14.6329278000048	1.00000209995778	win	NaN	n/a	n/a
21.5495977999526	3.00316050002584	decision	1.78235590003897	left	B
25.0998431000044	1.01635029999306	loss	NaN	n/a	n/a
32.0327949999482	3.00320620002458	decision	2.53320990002248	right	B
35.5828687999747	1.00018269999418	loss	NaN	n/a	n/a
38.3165072999545	3.00315639999462	decision	2.28245749999769	right	B
41.8664575999719	1.01644749997649	loss	NaN	n/a	n/a
44.6163979999837	3.00295699998969	decision	2.78353879996575	right	B
48.1664481000043	1.01642629998969	win	NaN	n/a	n/a
50.9164083999931	3.00334659998771	decision	1.78229509998346	left	B
54.4663881000015	1.00004079996143	win	NaN	n/a	n/a
59.2998501999537	3.00280140002724	decision	2.28205820004223	right	B
62.8495571999811	1.00019049999537	loss	NaN	n/a	n/a
67.6829771999619	3.00388189998921	decision	2.7849503000034	right	B
71.2330878999783	1.01607989997137	win	NaN	n/a	n/a
73.9827511999756	3.003178199986	decision	2.28258040000219	right	B
77.5329254999524	1.01683770003729	win	NaN	n/a	n/a
82.3829445999581	3.00309000001289	decision	1.78257610002765	left	B
85.9328053999925	1.00021339999512	loss	NaN	n/a	n/a
92.8660406999988	3.00389419996645	decision	1.78352589998394	right	B
96.4160546999774	1.00010810000822	loss	NaN	n/a	n/a
103.349810499989	3.00307869998505	decision	2.03223660000367	right	B
106.899715399952	1.01664100005291	win	NaN	n/a	n/a
113.849455399963	3.05296940001426	decision	3.04995790001703	left	B
117.449676999997	1.0000827999902	win	NaN	n/a	n/a
122.266156799975	3.00298180000391	decision	1.78309450001689	left	B
125.816162399948	1.01675850001629	win	NaN	n/a	n/a
128.549688999949	3.00307870004326	decision	1.78236190002644	right	B
132.099213999987	1.0168110000086	win	NaN	n/a	n/a
134.832955799997	3.00285729998723	decision	1.78240279998863	right	B
138.382649699983	1.00024209998082	loss	NaN	n/a	n/a
141.116113099968	3.0028561000363	decision	1.53302979998989	right	B
144.666166899959	1.01641700003529	loss	NaN	n/a	n/a
153.699731200002	3.0031473999843	decision	2.03228059998946	left	B
157.249740400002	1.01637749996735	loss	NaN	n/a	n/a
162.082794199989	3.00318319996586	decision	2.53325400000904	left	B
165.632924999984	1.0164567999891	win	NaN	n/a	n/a
168.366334699967	3.00438500003656	decision	1.78291960002389	right	B
171.915909599978	1.01680520002265	loss	NaN	n/a	n/a
178.865929499967	3.00299509998877	decision	1.78336589998798	left	B
182.41620399995	1.00004440004705	loss	NaN	n/a	n/a
185.132569599955	3.00329790002434	decision	2.78438510000706	left	B
188.682922999957	1.01646260003326	win	NaN	n/a	n/a
191.416087699996	3.00283559999662	decision	2.28324799996335	right	B
194.966087399982	1.00010439998005	win	NaN	n/a	n/a
201.883110199997	3.00327629997628	decision	2.03281020000577	right	B
205.432916099962	1.01629599998705	loss	NaN	n/a	n/a
212.383198699972	3.00351539999247	decision	1.78182450000895	right	B
215.932598499989	1.01659169996856	loss	NaN	n/a	n/a
220.782978399948	3.00462140003219	decision	1.78294060000917	right	B
224.332857699948	1.01635750004789	loss	NaN	n/a	n/a
227.065865499957	3.00447820004774	decision	1.78317820001394	right	B
230.616196999967	1.01637900003698	loss	NaN	n/a	n/a
237.565985299996	3.00382019998506	decision	2.03310109995073	right	B
241.116133999953	1.0166982000228	loss	NaN	n/a	n/a
243.865848499991	3.00265749997925	decision	2.28315799997654	left	B
247.415910299984	1.01692490000278	win	NaN	n/a	n/a
250.165840299975	3.00290139997378	decision	1.5330805000267	right	B
253.715729799995	1.00017219997244	loss	NaN	n/a	n/a
256.449557799962	3.00247170001967	decision	1.53200070001185	right	B
259.99948259996	1.01643200003309	win	NaN	n/a	n/a
264.832899399975	3.00274050002918	decision	1.53301790001569	left	B
268.382723499963	1.01643630000763	win	NaN	n/a	n/a
271.132491900004	3.00350880000042	decision	2.03246569994371	left	B
274.682622499997	1.01631259999704	win	NaN	n/a	n/a
279.532571299991	3.00302669999655	decision	1.5333907000022	right	B
283.082809999993	1.01660929998616	win	NaN	n/a	n/a
290.032543399953	3.00323570001638	decision	1.78228460001992	right	B
293.582795800001	1.01608979998855	win	NaN	n/a	n/a
300.532900299993	3.00306039996212	decision	2.03267779998714	left	B
304.082312499988	1.00042860000394	win	NaN	n/a	n/a
306.832833099994	3.00383979995968	decision	2.53217359998962	right	B
310.382826099987	1.01651659997879	loss	NaN	n/a	n/a
313.13242629997	3.00347749999491	decision	2.28317100001732	right	B
316.682298999978	1.00039820000529	win	NaN	n/a	n/a
321.516128999996	3.00282289995812	decision	1.78335179999704	right	B
325.06563919998	1.0000101000187	loss	NaN	n/a	n/a
331.999257099989	3.00319839996519	decision	2.0327073999797	left	B
335.549063899962	1.00006859999849	win	NaN	n/a	n/a
342.482393399987	3.00352759996895	decision	2.78244109998923	left	B
346.032688999956	1.01626160001615	win	NaN	n/a	n/a
359.282496	3.00321419996908	decision	2.53250839997781	right	B
362.832407199952	1.00034900003811	loss	NaN	n/a	n/a
367.665830999962	3.00289579998935	decision	1.78200240002479	right	B
371.215570899949	1.0002564000315	win	NaN	n/a	n/a
376.032646899985	3.00303079996957	decision	2.28334239998367	left	B
379.58256239997	1.00002350000432	loss	NaN	n/a	n/a
384.415720399993	3.00326679996215	decision	2.03259869996691	left	B
387.965558599972	1.00016270001652	loss	NaN	n/a	n/a
394.899006499967	3.00304069998674	decision	1.53319079999346	right	B
398.448820199992	1.0000238000066	loss	NaN	n/a	n/a
401.182376099983	3.00357329996768	decision	1.53275660000509	left	B
404.732532900001	1.0163126999978	loss	NaN	n/a	n/a
411.682653399999	3.00329399999464	decision	1.53304189996561	right	B
415.23250589997	1.01635480002733	win	NaN	n/a	n/a
417.982644199976	3.00305759999901	decision	2.03242399997544	right	B
421.532517299987	1.01639629999408	loss	NaN	n/a	n/a
426.382625299972	3.00310259999242	decision	1.53240869997535	left	B
429.93249029998	1.01649910002016	loss	NaN	n/a	n/a
432.665994599985	3.00405909999972	decision	2.03295169997727	left	B
436.215924799966	1.01656590000493	win	NaN	n/a	n/a
438.949124799983	3.00383469997905	decision	2.53380829998059	right	B
442.498745399993	1.00018049997743	win	NaN	n/a	n/a
445.232535999967	3.00305769999977	decision	2.53317730000708	left	B
448.782387599989	1.00014119996922	win	NaN	n/a	n/a
453.615981499956	3.00292950001312	decision	2.28202370001236	right	B
457.165793899971	1.00002029997995	win	NaN	n/a	n/a
461.999042799987	3.0038932999596	decision	2.53287940000882	left	B
465.548944399983	1.00015310000163	loss	NaN	n/a	n/a
472.482384599978	3.00297009997303	decision	2.78347439999925	right	B
476.032257399987	1.0164655999979	loss	NaN	n/a	n/a
480.898982099956	3.00426350004273	decision	2.28299430001061	left	B
484.44898289995	1.01686960004736	loss	NaN	n/a	n/a
487.215955199965	3.00341730000218	decision	1.53271810000297	right	B
490.765937399992	1.01642339996761	win	NaN	n/a	n/a
493.516045900004	3.00363939994713	decision	1.78291939996416	right	B
497.065494499984	1.01665820000926	win	NaN	n/a	n/a
