onset	duration	trial_type	rt	resp
0.00035930000012740493	0.5994361999910325	fixation_1	999	999
0.5998507000040263	3.003130199969746	face	1.7831723999697715	3
3.6030189999728464	0.5994361999910325	fixation_2	999	999
4.149854499963112	1.0166237000375986	feedback loss	999	999
5.166480399959255	5.317339600005653	ITI	999	999
10.48904339998262	0.5936627999763004	fixation_1	999	999
11.082766699953936	3.0044673000229523	face	2.2829237999976613	2
14.087276499951258	0.5936627999763004	fixation_2	999	999
14.632927800004836	1.0000020999577828	feedback win	999	999
15.63293199997861	5.315959099971224	ITI	999	999
20.9519438999705	0.5975996000343002	fixation_1	999	999
21.549597799952608	3.0031605000258423	face	1.782355900038965	2
24.552795699972194	0.5975996000343002	fixation_2	999	999
25.099843100004364	1.0163502999930643	feedback loss	999	999
26.11619539995445	5.3158875000081025	ITI	999	999
31.43511949997628	0.5976167999906465	fixation_1	999	999
32.03279499994824	3.0032062000245787	face	2.5332099000224844	3
35.036038899968844	0.5976167999906465	fixation_2	999	999
35.582868799974676	1.000182699994184	feedback loss	999	999
36.58305369998561	1.1169704999774694	ITI	999	999
37.70308219996514	0.6133624000358395	fixation_1	999	999
38.31650729995454	3.003156399994623	face	2.2824574999976903	3
41.31970449996879	0.6133624000358395	fixation_2	999	999
41.86645759997191	1.0164474999764934	feedback loss	999	999
42.88290719996439	1.1180494999862276	ITI	999	999
44.0040531999548	0.6122863000491634	fixation_1	999	999
44.61639799998375	3.002956999989692	face	2.783538799965754	3
47.619395999994595	0.6122863000491634	fixation_2	999	999
48.166448100004345	1.0164262999896891	feedback win	999	999
49.18287669995334	1.118381300009787	ITI	999	999
50.304435199999716	0.6119225999573246	fixation_1	999	999
50.91640839999309	3.003346599987708	face	1.7822950999834575	2
53.91979469999205	0.6119225999573246	fixation_2	999	999
54.466388100001495	1.0000407999614254	feedback win	999	999
55.46643109997967	3.216243500006385	ITI	999	999
58.685866399959195	0.6139252000139095	fixation_1	999	999
59.29985019995365	3.002801400027238	face	2.282058200042229	3
62.30269329994917	0.6139252000139095	fixation_2	999	999
62.849557199981064	1.0001904999953695	feedback loss	999	999
63.849749899993185	3.2159688000101596	ITI	999	999
67.06889459997183	0.614023600006476	fixation_1	999	999
67.6829771999619	3.00388189998921	face	2.784950300003402	3
70.68690119998064	0.614023600006476	fixation_2	999	999
71.23308789997827	1.0160798999713734	feedback win	999	999
72.24916989996564	1.1178120999829844	ITI	999	999
73.37018609995721	0.6125066000386141	fixation_1	999	999
73.98275119997561	3.003178199985996	face	2.282580400002189	3
76.98597079998581	0.6125066000386141	fixation_2	999	999
77.5329254999524	1.0168377000372857	feedback win	999	999
78.54976559994975	3.216371300048195	ITI	999	999
81.76938759995392	0.613494899997022	fixation_1	999	999
82.38294459995814	3.0030900000128895	face	1.7825761000276543	2
85.38607720000437	0.613494899997022	fixation_2	999	999
85.9328053999925	1.0002133999951184	feedback loss	999	999
86.93302100000437	5.316175299987663	ITI	999	999
92.25249719998101	0.6134937999886461	fixation_1	999	999
92.86604069999885	3.003894199966453	face	1.7835258999839425	3
95.86997419997351	0.6134937999886461	fixation_2	999	999
96.4160546999774	1.0001081000082195	feedback loss	999	999
97.4161649000016	5.317768899956718	ITI	999	999
102.73730629996862	0.61240630003158	fixation_1	999	999
103.34981049998896	3.0030786999850534	face	2.032236600003671	3
106.35292919998756	0.61240630003158	fixation_2	999	999
106.89971539995167	1.016641000052914	feedback win	999	999
107.91635849996237	5.316578700032551	ITI	999	999
113.23630499996943	0.6130986000061966	fixation_1	999	999
113.84945539996261	3.0529694000142626	face	3.0499579000170343	2
116.9024536999641	0.6130986000061966	fixation_2	999	999
117.44967699999688	1.0000827999901958	feedback win	999	999
118.44976219994714	3.217383300012443	ITI	999	999
121.67046789999586	0.5956226999987848	fixation_1	999	999
122.26615679997485	3.0029818000039086	face	1.7830945000168867	2
125.26917949999915	0.5956226999987848	fixation_2	999	999
125.81616239994764	1.0167585000162944	feedback win	999	999
126.83292309998069	1.1171027999953367	ITI	999	999
127.95333259995095	0.596279899997171	fixation_1	999	999
128.54968899994856	3.003078700043261	face	1.7823619000264443	3
131.5528101999662	0.596279899997171	fixation_2	999	999
132.09921399998711	1.0168110000086017	feedback win	999	999
133.11602719995426	1.1168415000429377	ITI	999	999
134.23683719994733	0.5960475000320002	fixation_1	999	999
134.83295579999685	3.0028572999872267	face	1.7824027999886312	3
137.8358543999493	0.5960475000320002	fixation_2	999	999
138.38264969998272	1.0002420999808237	feedback loss	999	999
139.3828939999803	1.118036600004416	ITI	999	999
140.50433759996668	0.6117062999983318	fixation_1	999	999
141.11611309996806	3.002856100036297	face	1.5330297999898903	3
144.11900959996274	0.6117062999983318	fixation_2	999	999
144.66616689995863	1.0164170000352897	feedback loss	999	999
145.6825859999517	7.4167120000347495	ITI	999	999
153.1028361999779	0.5968201999785379	fixation_1	999	999
153.69973120000213	3.0031473999843	face	2.0322805999894626	2
156.70291499997256	0.5968201999785379	fixation_2	999	999
157.24974040000234	1.0163774999673478	feedback loss	999	999
158.26611999998568	3.216886800015345	ITI	999	999
161.48655410000356	0.5961710999836214	fixation_1	999	999
162.0827941999887	3.0031831999658607	face	2.5332540000090376	2
165.08601799997268	0.5961710999836214	fixation_2	999	999
165.63292499998352	1.0164567999891005	feedback win	999	999
166.64938399998937	1.118017599976156	ITI	999	999
167.77098339999793	0.5952746999682859	fixation_1	999	999
168.3663346999674	3.0043850000365637	face	1.782919600023888	3
171.37076079996768	0.5952746999682859	fixation_2	999	999
171.91590959997848	1.0168052000226453	feedback loss	999	999
172.93271699995967	5.3172739000292495	ITI	999	999
178.25355429999763	0.6123139999690466	fixation_1	999	999
178.86592949996702	3.002995099988766	face	1.7833658999879844	2
181.86896579997847	0.6123139999690466	fixation_2	999	999
182.41620399995008	1.0000444000470452	feedback loss	999	999
183.41625039995415	1.1178141999989748	ITI	999	999
184.53772379999282	0.5947764999582432	fixation_1	999	999
185.13256959995488	3.003297900024336	face	2.784385100007057	2
188.13590929994825	0.5947764999582432	fixation_2	999	999
188.68292299995665	1.0164626000332646	feedback win	999	999
189.69938779994845	1.1186330000055023	ITI	999	999
190.82158629997866	0.5944061999907717	fixation_1	999	999
191.41608769999584	3.002835599996615	face	2.2832479999633506	3
194.41896039998392	0.5944061999907717	fixation_2	999	999
194.96608739998192	1.0001043999800459	feedback win	999	999
195.966194299981	5.315680400002748	ITI	999	999
201.28544129995862	0.5975897000171244	fixation_1	999	999
201.88311019999674	3.003276299976278	face	2.0328102000057697	3
204.88642789999722	0.5975897000171244	fixation_2	999	999
205.4329160999623	1.016295999987051	feedback loss	999	999
206.4492140999646	5.316738300025463	ITI	999	999
211.76957919995766	0.6134980000206269	fixation_1	999	999
212.38319869997213	3.003515399992466	face	1.7818245000089519	3
215.38675009994768	0.6134980000206269	fixation_2	999	999
215.93259849998867	1.0165916999685578	feedback loss	999	999
216.94919229997322	3.216764700016938	ITI	999	999
220.1696959999972	0.6132022999809124	fixation_1	999	999
220.78297839994775	3.0046214000321925	face	1.7829406000091694	3
223.78763979999349	0.6132022999809124	fixation_2	999	999
224.33285769994836	1.0163575000478886	feedback loss	999	999
225.3492173999548	1.1177769000059925	ITI	999	999
226.47068359999685	0.595114299969282	fixation_1	999	999
227.065865499957	3.0044782000477426	face	1.7831782000139356	3
230.07038319995627	0.595114299969282	fixation_2	999	999
230.61619699996663	1.0163790000369772	feedback loss	999	999
231.63257819996215	5.317450400034431	ITI	999	999
236.95379569998477	0.6121039999998175	fixation_1	999	999
237.5659852999961	3.003820199985057	face	2.033101099950727	3
240.5698469999479	0.6121039999998175	fixation_2	999	999
241.11613399995258	1.0166982000228018	feedback loss	999	999
242.13283479999518	1.1180888999952003	ITI	999	999
243.25472299999092	0.6110554999904707	fixation_1	999	999
243.86584849999053	3.00265749997925	face	2.283157999976538	2
246.86854469997343	0.6110554999904707	fixation_2	999	999
247.4159102999838	1.0169249000027776	feedback win	999	999
248.43283740000334	1.1185027999454178	ITI	999	999
249.55516529997112	0.6106087000225671	fixation_1	999	999
250.16584029997466	3.00290139997378	face	1.5330805000266992	3
253.1687810999574	0.6106087000225671	fixation_2	999	999
253.71572979999473	1.0001721999724396	feedback loss	999	999
254.7159044999862	1.117708700010553	ITI	999	999
255.83747239998775	0.612000499968417	fixation_1	999	999
256.44955779996235	3.002471700019669	face	1.5320007000118494	3
259.4520664999727	0.612000499968417	fixation_2	999	999
259.9994825999602	1.0164320000330918	feedback win	999	999
261.01591669995105	3.2170793000259437	ITI	999	999
264.2368351999903	0.5959791999775916	fixation_1	999	999
264.83289939997485	3.0027405000291765	face	1.5330179000156932	2
267.8356820999761	0.5959791999775916	fixation_2	999	999
268.3827234999626	1.0164363000076264	feedback win	999	999
269.3991618999862	1.1168036999879405	ITI	999	999
270.51977979997173	0.6126338000176474	fixation_1	999	999
271.1324919000035	3.003508800000418	face	2.032465699943714	2
274.1360431999783	0.6126338000176474	fixation_2	999	999
274.6826224999968	1.0163125999970362	feedback win	999	999
275.6989372999524	3.216413800022565	ITI	999	999
278.91935869998997	0.6131271999911405	fixation_1	999	999
279.5325712999911	3.0030266999965534	face	1.533390700002201	3
282.5356356999837	0.6131271999911405	fixation_2	999	999
283.0828099999926	1.0166092999861576	feedback win	999	999
284.0994214999955	5.315756600000896	ITI	999	999
289.4190794999595	0.6133891000063159	fixation_1	999	999
290.0325433999533	3.0032357000163756	face	1.7822846000199206	3
293.035821700003	0.6133891000063159	fixation_2	999	999
293.5827958000009	1.0160897999885492	feedback win	999	999
294.5988875000039	5.316069900000002	ITI	999	999
299.9188524999772	0.6139593999832869	fixation_1	999	999
300.53290029999334	3.0030603999621235	face	2.032677799987141	2
303.5360019999789	0.6139593999832869	fixation_2	999	999
304.0823124999879	1.0004286000039428	feedback win	999	999
305.0827431999496	1.117904000042472	ITI	999	999
306.20459829998435	0.6281452999683097	fixation_1	999	999
306.8328330999939	3.003839799959678	face	2.532173599989619	3
309.8367107999511	0.6281452999683097	fixation_2	999	999
310.38282609998714	1.016516599978786	feedback loss	999	999
311.39934499998344	1.1170145999640226	ITI	999	999
312.5203907999676	0.6119560000370257	fixation_1	999	999
313.13242629996967	3.003477499994915	face	2.283171000017319	3
316.1359456999926	0.6119560000370257	fixation_2	999	999
316.68229899997823	1.000398200005293	feedback win	999	999
317.6826992999995	3.216233999992255	ITI	999	999
320.9031010000035	0.6128388999495655	fixation_1	999	999
321.516128999996	3.002822899958119	face	1.7833517999970354	3
324.51899219996994	0.6128388999495655	fixation_2	999	999
325.06563919998007	1.0000101000186987	feedback loss	999	999
326.0656522999634	5.317834899993613	ITI	999	999
331.387457099976	0.6117077000089921	fixation_1	999	999
331.99925709998934	3.0031983999651857	face	2.0327073999796994	2
335.0024969999795	0.6117077000089921	fixation_2	999	999
335.54906389996177	1.0000685999984853	feedback win	999	999
336.54913459997624	5.3178174999775365	ITI	999	999
341.8710170999984	0.6113005999941379	fixation_1	999	999
342.4823933999869	3.0035275999689475	face	2.782441099989228	2
345.4859612999717	0.6113005999941379	fixation_2	999	999
346.032688999956	1.0162616000161506	feedback win	999	999
347.0489525999874	11.616152799979318	ITI	999	999
358.6692076000036	0.61320490000071	fixation_1	999	999
359.2824959999998	3.0032141999690793	face	2.5325083999778144	3
362.2857458999497	0.61320490000071	fixation_2	999	999
362.8324071999523	1.0003490000381134	feedback loss	999	999
363.83275839994894	3.21677710005315	ITI	999	999
367.05378179997206	0.6119175999774598	fixation_1	999	999
367.66583099996205	3.0028957999893464	face	1.782002400024794	3
370.66876569995657	0.6119175999774598	fixation_2	999	999
371.21557089994894	1.0002564000315033	feedback win	999	999
372.2158294999972	3.216558999964036	ITI	999	999
375.43659969995497	0.5959478000295348	fixation_1	999	999
376.0326468999847	3.003030799969565	face	2.283342399983667	2
379.0357188999769	0.5959478000295348	fixation_2	999	999
379.5825623999699	1.0000235000043176	feedback loss	999	999
380.58258809999097	3.2168297999887727	ITI	999	999
383.8039886999759	0.6116479000193067	fixation_1	999	999
384.415720399993	3.003266799962148	face	2.0325986999669112	2
387.41902859997936	0.6116479000193067	fixation_2	999	999
387.9655585999717	1.0001627000165172	feedback loss	999	999
388.9657234000042	5.316117799957283	ITI	999	999
394.28611599997384	0.6127501000300981	fixation_1	999	999
394.8990064999671	3.003040699986741	face	1.5331907999934629	3
397.90209059999324	0.6127501000300981	fixation_2	999	999
398.44882019999204	1.000023800006602	feedback loss	999	999
399.44884599995567	1.117015400028322	ITI	999	999
400.5702132000006	0.6120797999901697	fixation_1	999	999
401.18237609998323	3.003573299967684	face	1.5327566000050865	2
404.1859907999751	0.6120797999901697	fixation_2	999	999
404.7325329000014	1.0163126999977976	feedback loss	999	999
405.7488475999562	5.317098100029398	ITI	999	999
411.0702470999677	0.6123100999975577	fixation_1	999	999
411.68265339999925	3.0032939999946393	face	1.5330418999656104	3
414.6859871999477	0.6123100999975577	fixation_2	999	999
415.2325058999704	1.0163548000273295	feedback win	999	999
416.24886299995705	1.1181641000439413	ITI	999	999
417.3714095999603	0.6111345000099391	fixation_1	999	999
417.98264419997577	3.0030575999990106	face	2.0324239999754354	3
420.985745199956	0.6111345000099391	fixation_2	999	999
421.5325172999874	1.016396299994085	feedback loss	999	999
422.548915899999	3.216434699948877	ITI	999	999
425.76964879996376	0.6128776000114158	fixation_1	999	999
426.38262529997155	3.003102599992417	face	1.532408699975349	2
429.3857702999958	0.6128776000114158	fixation_2	999	999
429.9324902999797	1.0164991000201553	feedback loss	999	999
430.94899139995687	1.1179345000418834	ITI	999	999
432.07133329997305	0.5945617000106722	fixation_1	999	999
432.6659945999854	3.004059099999722	face	2.032951699977275	2
435.67009379999945	0.5945617000106722	fixation_2	999	999
436.21592479996616	1.0165659000049345	feedback win	999	999
437.23249289998785	1.1175329000107013	ITI	999	999
438.354315399949	0.5947089000255801	fixation_1	999	999
438.9491247999831	3.003834699979052	face	2.533808299980592	3
441.9529991999734	0.5947089000255801	fixation_2	999	999
442.4987453999929	1.0001804999774322	feedback win	999	999
443.4989280999871	1.1181174999801442	ITI	999	999
444.6215404999675	0.6108925000298768	fixation_1	999	999
445.2325359999668	3.003057699999772	face	2.5331773000070825	2
448.23563559999457	0.6108925000298768	fixation_2	999	999
448.7823875999893	1.000141199969221	feedback win	999	999
449.7825308999745	3.2164673000224866	ITI	999	999
453.0032995999791	0.612579700013157	fixation_1	999	999
453.6159814999555	3.002929500013124	face	2.2820237000123598	3
456.6189530999982	0.612579700013157	fixation_2	999	999
457.1657938999706	1.0000202999799512	feedback win	999	999
458.16581649996806	3.2175091999815777	ITI	999	999
461.3879241999821	0.6110134000191465	fixation_1	999	999
461.99904279998736	3.0038932999596	face	2.5328794000088237	2
465.002975899959	0.6110134000191465	fixation_2	999	999
465.54894439998316	1.0001531000016257	feedback loss	999	999
466.5490996000008	5.315896599960979	ITI	999	999
471.86992779996945	0.6123489000019617	fixation_1	999	999
472.4823845999781	3.0029700999730267	face	2.7834743999992497	3
475.4853963999776	0.6123489000019617	fixation_2	999	999
476.03225739998743	1.0164655999979004	feedback loss	999	999
477.0487251000013	3.2169706999557093	ITI	999	999
480.2703801000025	0.6284932999988087	fixation_1	999	999
480.8989820999559	3.0042635000427254	face	2.282994300010614	2
483.9032867999631	0.6284932999988087	fixation_2	999	999
484.44898289995035	1.0168696000473574	feedback loss	999	999
485.46585469995625	1.1171093000448309	ITI	999	999
486.58745479997015	0.628394200000912	fixation_1	999	999
487.2159551999648	3.0034173000021838	face	1.5327181000029668	3
490.2194110999699	0.628394200000912	fixation_2	999	999
490.76593739999225	1.016423399967607	feedback win	999	999
491.78236289997585	1.116606600000523	ITI	999	999
492.90353889996186	0.6121844000299461	fixation_1	999	999
493.5160459000035	3.003639399947133	face	1.7829193999641575	3
496.5197254999657	0.6121844000299461	fixation_2	999	999
497.0654944999842	1.0166582000092603	feedback win	999	999
498.08215479995124	5.316955800051801	ITI	999	999
