onset	duration	trial_type	rt	resp
0.0004733360583486501	0.6784505609830376	fixation_1	999	999
0.6790054026132566	3.0075048518447147	face	1.7999216339012492	3
3.686571232698043	0.6784505609830376	fixation_2	999	999
4.228849530754815	1.0000555445367354	feedback loss	999	999
5.228917452062888	5.316619559467654	ITI	999	999
10.659738089394523	0.6691332667396637	fixation_1	999	999
11.328954974815133	3.006545199215907	face	1.5496177237764641	3
14.335549982988596	0.6691332667396637	fixation_2	999	999
14.878720917982719	1.0000516201944265	feedback win	999	999
15.878775556902838	5.3167312522855354	ITI	999	999
21.19982539695411	0.6788245809948421	fixation_1	999	999
21.87873631347975	3.0067009654194408	face	1.2995903288501722	2
24.885495842161617	0.6788245809948421	fixation_2	999	999
25.428938764260238	1.0166023829224287	feedback loss	999	999
26.445554127698415	5.3168758492065535	ITI	999	999
31.766821919685754	0.6786980964243412	fixation_1	999	999
32.445611181599816	3.0067927346535726	face	1.2995133513650217	3
35.45245855517351	0.6786980964243412	fixation_2	999	999
35.99534301317544	1.0166223065061786	feedback loss	999	999
37.01197769645296	1.1178132840213948	ITI	999	999
38.134253259544494	0.6610959118297615	fixation_1	999	999
38.79544124248423	3.0066689669329207	face	1.5491966116605909	2
41.802166357701935	0.6610959118297615	fixation_2	999	999
42.34536506496079	1.0166666817603982	feedback loss	999	999
43.36204382162032	1.1174884692263731	ITI	999	999
44.483958948963846	0.6447763834294165	fixation_1	999	999
45.12882559226637	3.006604668094951	face	1.0493796973241842	2
48.13548852175154	0.6447763834294165	fixation_2	999	999
48.678609949656675	1.0000347153363691	feedback win	999	999
49.67865643801997	1.1185779270235798	ITI	999	999
50.80169422913605	0.6435867039654113	fixation_1	999	999
51.44536877799328	3.0068639765595435	face	1.0456645526537613	2
54.452290412198636	0.6435867039654113	fixation_2	999	999
54.99534271130324	1.0166775491707085	feedback win	999	999
56.012032637245284	3.2165400764424703	ITI	999	999
59.233132497571205	0.662112014615559	fixation_1	999	999
59.895330545841716	3.007979999139934	face	1.2996645894854737	3
62.903361561431666	0.662112014615559	fixation_2	999	999
63.44527670688694	1.016661248053424	feedback loss	999	999
64.46195063358391	3.2166985594958533	ITI	999	999
67.68336444129454	0.6784544853253465	fixation_1	999	999
68.36191552581658	3.006547916069394	face	1.300366141134873	3
71.3685150620804	0.6784544853253465	fixation_2	999	999
71.91201896242274	1.0165305372684088	feedback win	999	999
72.92856217833832	1.1176789507626381	ITI	999	999
74.05099713009986	0.6609881433541887	fixation_1	999	999
74.7120818726471	3.006398187317245	face	1.5492923052406695	3
77.71853047266995	0.6609881433541887	fixation_2	999	999
78.2619990539315	1.0166135522049444	feedback win	999	999
79.27862498290779	3.216885418562015	ITI	999	999
82.50038171775668	0.6782289865805069	fixation_1	999	999
83.1787082091505	3.0067851878411602	face	1.7995029367666575	2
86.18554380969726	0.6782289865805069	fixation_2	999	999
86.7284986039922	1.0168254666859866	feedback loss	999	999
87.74533614557731	5.3158787643878895	ITI	999	999
93.06583657770898	0.6793045582453487	fixation_1	999	999
93.74524377259877	3.006929482889973	face	1.7977339640056016	3
96.75222547942758	0.6793045582453487	fixation_2	999	999
97.29547731624552	1.0163910721821594	feedback loss	999	999
98.31188046332682	5.316527790229884	ITI	999	999
103.63310478567655	0.678609345912264	fixation_1	999	999
104.31181797572208	3.0068932581925765	face	1.7995944041285838	3
107.31876617470698	0.678609345912264	fixation_2	999	999
107.86177470230177	1.016668492993631	feedback win	999	999
108.87845557206674	5.316613220144063	ITI	999	999
114.19986977221197	0.6786193077023199	fixation_1	999	999
114.87859201843094	3.006637874070293	face	1.5492868715373334	3
117.88528000333463	0.6786193077023199	fixation_2	999	999
118.42840052561951	1.0167204150639009	feedback win	999	999
119.44513331745475	3.216655693602661	ITI	999	999
122.66656674687329	0.6619647008446918	fixation_1	999	999
123.32863498997904	3.0057443315163255	face	1.549321284997859	3
126.33443033794538	0.6619647008446918	fixation_2	999	999
126.87850175855783	1.0164523522980744	feedback win	999	999
127.89496648762724	1.1183418627406354	ITI	999	999
129.018115669689	0.6602775355240738	fixation_1	999	999
129.6785018793089	3.006958764519368	face	1.29972405836088	3
132.68551105653387	0.6602775355240738	fixation_2	999	999
133.2284549834185	1.0000691287968948	feedback win	999	999
134.2285361871145	1.1174999403810943	ITI	999	999
135.35093068796414	0.6442176174605265	fixation_1	999	999
135.9952578851371	3.006889031974424	face	1.2997313033010869	3
139.00219823543375	0.6442176174605265	fixation_2	999	999
139.54499998037863	1.0166328720406455	feedback loss	999	999
140.56164583293867	1.1175757103737851	ITI	999	999
141.68411217943867	0.6440832842017699	fixation_1	999	999
142.32830383586406	3.0071522647849633	face	1.549846844995045	3
145.3355107395655	0.6440832842017699	fixation_2	999	999
145.87817030257065	1.0000147917526192	feedback loss	999	999
146.87818811304533	7.4167838686589675	ITI	999	999
154.29991997360412	0.6783213595626876	fixation_1	999	999
154.978350007259	3.0071598115973757	face	1.5494335815637896	3
157.9855608353064	0.6783213595626876	fixation_2	999	999
158.52825360428324	1.0001509362409706	feedback loss	999	999
159.52841691729554	3.216510492937232	ITI	999	999
162.74993849348175	0.6616039632244792	fixation_1	999	999
163.4116535457797	3.006493880893686	face	1.7993492836721998	2
166.41819995248443	0.6616039632244792	fixation_2	999	999
166.96165857195592	1.016458691618027	feedback win	999	999
167.9781299422175	1.1176478579000104	ITI	999	999
169.1006892654441	0.644121320136037	fixation_1	999	999
169.74492922146965	3.0066493452213763	face	1.799499314296554	2
172.75163562059242	0.644121320136037	fixation_2	999	999
173.2949070791219	1.0000024149812816	feedback loss	999	999
174.29492187087453	5.31664944484146	ITI	999	999
179.61659568135292	0.6782806067749334	fixation_1	999	999
180.29499069779922	3.006986838663579	face	2.0668608310479613	3
183.30203368474395	0.6782806067749334	fixation_2	999	999
183.84478531885543	1.0167412442642672	feedback loss	999	999
184.86153863801883	1.1175271089050511	ITI	999	999
185.98411063988897	0.6607297405062127	fixation_1	999	999
186.64495841253665	3.0077339730632957	face	2.56584518107411	2
189.65275064699017	0.6607297405062127	fixation_2	999	999
190.19479106952713	1.0166002698133525	feedback win	999	999
191.2114034142396	1.1174425846074882	ITI	999	999
192.33406326100157	0.6440057029758464	fixation_1	999	999
192.97818850547992	3.007303804770345	face	2.316563713058713	3
195.98554815666284	0.6440057029758464	fixation_2	999	999
196.5281911166785	1.0164949163154233	feedback win	999	999
197.54469810789305	5.316699253802653	ITI	999	999
202.86654126883877	0.678244382077537	fixation_1	999	999
203.54490670177984	3.0070819284956087	face	2.5659348372028035	3
206.55203904298105	0.678244382077537	fixation_2	999	999
207.09470071909163	1.0167183019548247	feedback loss	999	999
208.1114310959456	5.316625898787606	ITI	999	999
213.43317856331123	0.6783255857772019	fixation_1	999	999
214.11162369059093	3.0070124978228705	face	2.565829181832669	2
217.1186866011194	0.6783255857772019	fixation_2	999	999
217.66136699332492	1.0166304570593638	feedback loss	999	999
218.67800952528341	3.217016733095079	ITI	999	999
221.90018103292823	0.6944063330447534	fixation_1	999	999
222.59471928425046	3.0072277329018107	face	1.7998772586470295	2
225.60200316543705	0.6944063330447534	fixation_2	999	999
226.14487947288217	1.0164158257248346	feedback loss	999	999
227.16130737350613	1.1185501547552121	ITI	999	999
228.28531176031902	0.6425298483954975	fixation_1	999	999
228.92796477269076	3.006711832826113	face	1.7996514580263465	2
231.9347288294557	0.6425298483954975	fixation_2	999	999
232.47809235909517	1.0165024631278357	feedback loss	999	999
233.49459965218193	5.316657293526077	ITI	999	999
238.8165925418798	0.695022152911406	fixation_1	999	999
239.51173876438042	3.006222799405805	face	1.549034808012948	3
242.5180119764882	0.695022152911406	fixation_2	999	999
243.0613444132614	1.0165761200150882	feedback loss	999	999
244.07793291004782	1.117624915590568	ITI	999	999
245.20095258881338	0.6768624098440341	fixation_1	999	999
245.87794057760766	3.0073454631747154	face	1.7995086723458371	3
248.8853376609768	0.6768624098440341	fixation_2	999	999
249.4278079499345	1.0002203669137089	feedback win	999	999
250.42804069361955	1.1174676400223689	ITI	999	999
251.55082189312088	0.6439827606664039	fixation_1	999	999
252.1949344589557	3.007662127409276	face	2.3157130363942997	3
255.20265273464975	0.6439827606664039	fixation_2	999	999
255.74449150636428	1.0168118824258272	feedback loss	999	999
256.76131546368924	1.117556390534446	ITI	999	999
257.88432004883	0.6437406589357124	fixation_1	999	999
258.5281920222951	3.0073188983951695	face	2.3162111259953235	2
261.53556706897143	0.6437406589357124	fixation_2	999	999
262.07804248976026	1.0163783935386164	feedback win	999	999
263.094432958198	3.216761047096952	ITI	999	999
266.31661322014406	0.6611517582423403	fixation_1	999	999
266.9778953872992	3.0065116913683596	face	2.0662688591037295	2
269.9844644344412	0.6611517582423403	fixation_2	999	999
270.5276682735348	1.0001675392304605	feedback win	999	999
271.5278484914088	1.1175406931652105	ITI	999	999
272.65087903758103	0.6602829692310479	fixation_1	999	999
273.3112918119805	3.0061971402428753	face	2.5660673592246894	2
276.3175457042489	0.6602829692310479	fixation_2	999	999
276.86122619999514	1.016631966427667	feedback win	999	999
277.87787114693856	3.21660437528044	ITI	999	999
281.09989866140677	0.6611680593559868	fixation_1	999	999
281.7615291894108	3.0062010645815462	face	2.8160401152308623	3
284.76778338355143	0.6611680593559868	fixation_2	999	999
285.311238078677	1.0166316645554616	feedback win	999	999
286.327882421876	5.3165407707456325	ITI	999	999
291.6499830800494	0.6778392691994668	fixation_1	999	999
292.3279587956131	3.0074634953161876	face	2.315929177093494	2
295.3354775335938	0.6778392691994668	fixation_2	999	999
295.87816335950265	1.0162621726303769	feedback win	999	999
296.8944385126524	5.316590881579032	ITI	999	999
302.2166146389427	0.69447334873621	fixation_1	999	999
302.9112247359153	3.006641798412602	face	1.7994144881267857	3
305.91792298448127	0.69447334873621	fixation_2	999	999
306.46106433597015	1.0166063072647376	feedback win	999	999
307.4776830200062	1.1176354811250349	ITI	999	999
308.6008735585965	0.6768053559426335	fixation_1	999	999
309.27781656839215	3.0065430861104687	face	2.3164468884060625	2
312.2844164065282	0.6768053559426335	fixation_2	999	999
312.8277886904689	1.016503368744452	feedback loss	999	999
313.84430413411246	1.1180484426877229	ITI	999	999
314.96808121094364	0.6761955735237279	fixation_1	999	999
315.64441323083156	3.006335397836665	face	2.316110300580476	2
318.6508011544829	0.6761955735237279	fixation_2	999	999
319.19460451232953	1.016300812309055	feedback win	999	999
320.2109173995377	3.2167685939130024	ITI	999	999
323.43331621716425	0.6609304857083771	fixation_1	999	999
324.0943798286389	3.0066167429940833	face	2.066467793072661	2
327.1010536255344	0.6609304857083771	fixation_2	999	999
327.6443281027896	1.0166533993724443	feedback loss	999	999
328.66099387893337	5.316575184209796	ITI	999	999
333.9832753587216	0.694344147312222	fixation_1	999	999
334.6777622917216	3.006461882407166	face	2.0663766275829403	3
337.6842794167933	0.694344147312222	fixation_2	999	999
338.2275825719371	1.0000383378028346	feedback win	999	999
339.2276329846427	5.316610201418371	ITI	999	999
344.5499712164601	0.6943809757540294	fixation_1	999	999
345.24449407228167	3.00657327335648	face	1.5494876167358598	3
348.2511162489827	0.6943809757540294	fixation_2	999	999
348.79426393979156	1.0166150615659717	feedback win	999	999
349.81089107625667	11.616592662627227	ITI	999	999
361.43322957976125	0.694283470940718	fixation_1	999	999
362.12765281766406	3.0078052149656287	face	1.5489626604867226	2
365.1355090490797	0.694283470940718	fixation_2	999	999
365.6776158835637	1.0000703362893546	feedback loss	999	999
366.6776985966244	3.2169198320261785	ITI	999	999
369.90261140830626	0.6746907391861896	fixation_1	999	999
370.5774485556467	3.006484522848041	face	1.5502742964345089	3
373.5839837930689	0.6746907391861896	fixation_2	999	999
374.12755440723413	1.0164218631725817	feedback win	999	999
375.14398834530584	3.2166013565547473	ITI	999	999
378.36644421683377	0.644356478802365	fixation_1	999	999
379.0109474056626	3.006998913562711	face	1.5498685798156657	2
382.01799884503635	0.644356478802365	fixation_2	999	999
382.5607773457996	1.0164472204633057	feedback loss	999	999
383.5772372449064	3.2167239167829393	ITI	999	999
386.7999002009565	0.6608516969936318	fixation_1	999	999
387.4609010229542	3.0071558872550668	face	1.3001518116725492	3
390.4681061154224	0.6608516969936318	fixation_2	999	999
391.01068568222036	1.0166757379338378	feedback loss	999	999
392.02737409879774	5.316577297318872	ITI	999	999
397.3500126937397	0.6773125017170969	fixation_1	999	999
398.02747432046453	3.007995092757483	face	1.799936123781663	2
401.0355210334201	0.6773125017170969	fixation_2	999	999
401.5774877990698	1.0000510164500156	feedback loss	999	999
402.57755089041893	1.1173381367298134	ITI	999	999
403.700877271629	0.6597278257286234	fixation_1	999	999
404.36075693921885	3.0067205871309852	face	1.7994896543787036	3
407.36753608961226	0.6597278257286234	fixation_2	999	999
407.91092739151645	1.016241645302216	feedback loss	999	999
408.9271817154622	5.316776533160009	ITI	999	999
414.25021968770307	0.6772361279763572	fixation_1	999	999
414.9276091669017	3.0063492839726678	face	1.7991394822965958	2
417.93401550477574	0.6772361279763572	fixation_2	999	999
418.47729934007657	1.0000567520291952	feedback win	999	999
419.4773690726215	1.1175748047571687	ITI	999	999
420.6009303106257	0.6763531509604945	fixation_1	999	999
421.2774386240417	3.0065050501762016	face	1.8004791923813173	2
424.2839937850513	0.6763531509604945	fixation_2	999	999
424.8272742997542	1.0166361926385434	feedback loss	999	999
425.8439225672919	3.2166801452731306	ITI	999	999
429.0666640101881	0.6605428814400511	fixation_1	999	999
429.7273635634483	3.006653873311734	face	1.549522332072229	3
432.7340675475898	0.6605428814400511	fixation_2	999	999
433.27723546385823	1.0000223385650315	feedback loss	999	999
434.2772698773224	1.1176493672610377	ITI	999	999
435.4010514822403	0.6428697568153439	fixation_1	999	999
436.0440791183646	3.0066088943094655	face	1.7994181105968892	2
439.0507444628274	0.6428697568153439	fixation_2	999	999
439.5938157799028	1.0166582293313695	feedback win	999	999
440.6104860841333	1.1179630127699056	ITI	999	999
441.7345792214546	1.0760229628358502	fixation_1	999	999
442.81076308232514	3.0065189363085665	face	2.3163321768588503	2
445.81733786504265	1.0760229628358502	fixation_2	999	999
446.3604674435046	1.0000534314312972	feedback win	999	999
447.36053325170724	1.1175385800597724	ITI	999	999
448.4842674626452	0.6431752517673885	fixation_1	999	999
449.1276286678658	3.0065729714842746	face	1.81141814561488	3
452.13425175018347	0.6431752517673885	fixation_2	999	999
452.67704745767696	1.0171213017201808	feedback win	999	999
453.6941808342963	3.2162910316401394	ITI	999	999
456.91659897176214	0.9104256794489629	fixation_1	999	999
457.8271846436255	3.007592998612381	face	1.5495407462949515	2
460.8348292624323	0.9104256794489629	fixation_2	999	999
461.3769958676676	1.0000540351757081	feedback win	999	999
462.3770532234412	3.216726935508632	ITI	999	999
465.60015721519085	0.6601616164916777	fixation_1	999	999
466.2604830503151	3.006260835332796	face	2.0661423745332286	2
469.2667946002257	0.6601616164916777	fixation_2	999	999
469.8103329140322	1.000045280874474	feedback loss	999	999
470.81038181737676	5.316547411941428	ITI	999	999
476.13332198292846	0.6771256426472974	fixation_1	999	999
476.8106076179938	3.0671340256485564	face	n/a	n/a
479.87778481140776	0.6771256426472974	fixation_2	999	999
480.4270867765663	1.0000751662482799	feedback loss	999	999
481.42717462146175	3.2164329117076704	ITI	999	999
484.649903687583	0.7104937215081009	fixation_1	999	999
485.3605607221034	3.006724511473294	face	1.5495639904765994	3
488.3673356462823	0.7104937215081009	fixation_2	999	999
488.91027715818564	1.0000809018238215	feedback loss	999	999
489.91037043678443	1.1182295661747048	ITI	999	999
491.0349812854147	0.6752413545982563	fixation_1	999	999
491.7103868586455	3.0065349355536455	face	1.2992839282778732	2
494.71697281064917	0.6752413545982563	fixation_2	999	999
495.2602602684201	1.0000181123468792	feedback win	999	999
496.26029045566975	1.1173707389534684	ITI	999	999
497.3840255722207	0.6595729651489819	fixation_1	999	999
498.0437663784687	3.006789112183469	face	1.8116321732086362	3
501.05060620523	0.6595729651489819	fixation_2	999	999
501.59399177155865	1.0165794406129862	feedback win	999	999
502.6105742308973	5.31633791243803	ITI	999	999
