onset	duration	trial_type	rt	resp
0.0005011107423342764	0.7370493814523797	fixation_1	999	999
0.7376392431324348	3.006792465574108	face	1.801264006557176	2
3.7444818197982386	0.7370493814523797	fixation_2	999	999
4.290487559628673	1.0009819959232118	feedback loss	999	999
5.291472574288491	5.317398112267256	ITI	999	999
10.615008689434035	0.7316790440236218	fixation_1	999	999
11.346771050652023	3.0073168206145056	face	2.066971941734664	3
14.354138284223154	0.7316790440236218	fixation_2	999	999
14.899488655733876	1.0009125649230555	feedback win	999	999
15.900404541258467	5.3163587602903135	ITI	999	999
21.22137774663861	0.7338600832445081	fixation_1	999	999
21.95532295832527	3.007014342932962	face	2.3180380850099027	2
24.96238952546264	0.7338600832445081	fixation_2	999	999
25.508086146379355	1.0005228456575423	feedback loss	999	999
26.508612614532467	5.3178669225017074	ITI	999	999
31.8309572332073	0.7495557170477696	fixation_1	999	999
32.58059928618604	3.0068492178979795	face	2.3177516066643875	2
35.58749921890558	0.7495557170477696	fixation_2	999	999
36.13338813351584	1.000991052162135	feedback loss	999	999
37.13438220441458	1.1176629160763696	ITI	999	999
38.25666439556517	0.6959453197778203	fixation_1	999	999
38.95269635313889	3.0065262127900496	face	1.8004124201834202	3
41.95927962008864	0.6959453197778203	fixation_2	999	999
42.50522709827055	1.0010209376632702	feedback loss	999	999
43.50625135653536	1.1177471389237326	ITI	999	999
44.628673315339256	0.678732769418275	fixation_1	999	999
45.307496948807966	3.0069853630266152	face	1.8007411608996335	2
48.314531819167314	0.678732769418275	fixation_2	999	999
48.86053635150893	1.000857322011143	feedback win	999	999
49.861396692256676	1.1178319654718507	ITI	999	999
50.983908609487116	0.7123624322703108	fixation_1	999	999
51.696359188936185	3.0063152028888	face	1.8011248426919337	3
54.7027257104055	0.7123624322703108	fixation_2	999	999
55.249270295200404	1.0007924191013444	feedback win	999	999
56.25006633679732	3.2174391972948797	ITI	999	999
59.47233793218038	0.714183034026064	fixation_1	999	999
60.186614848993486	3.0071335831598844	face	1.8004851718142163	2
63.19379854321596	0.714183034026064	fixation_2	999	999
63.739663006039336	1.0007755141705275	feedback loss	999	999
64.74044214267633	3.2167303973110393	ITI	999	999
67.961961166322	0.6984424210386351	fixation_1	999	999
68.66051407321356	3.0064827429305296	face	1.800369554082863	3
71.66705477592768	0.6984424210386351	fixation_2	999	999
72.21312783364556	1.0008733213180676	feedback win	999	999
73.21400447559427	1.1185280867794063	ITI	999	999
74.33724722961779	0.7282705853285734	fixation_1	999	999
75.06561984831933	3.0069095926883165	face	1.800662069930695	2
78.07258106145309	0.7282705853285734	fixation_2	999	999
78.61847148544621	1.0007694766682107	feedback win	999	999
79.61925333895488	3.2164819550234824	ITI	999	999
82.84056014521047	0.6987642186577432	fixation_1	999	999
83.53942035976797	3.006856764724944	face	2.317576821631519	3
86.54633387681679	0.6987642186577432	fixation_2	999	999
87.09211321116891	1.001124782313127	feedback loss	999	999
88.0932416159776	5.317251703410875	ITI	999	999
93.4153320568148	0.7328617860912345	fixation_1	999	999
94.14829134818865	3.007231692201458	face	2.0672333645634353	3
97.15557284958777	0.7328617860912345	fixation_2	999	999
97.7010403481836	1.0008407189161517	feedback loss	999	999
98.70189344394021	5.316584863845492	ITI	999	999
104.02324761421187	0.7170306109183002	fixation_1	999	999
104.74038025853224	3.0070677746261936	face	2.317596443434013	3
107.74750267234049	0.7170306109183002	fixation_2	999	999
108.29327717673732	1.0007030644046608	feedback win	999	999
109.29398356174352	5.317206120438641	ITI	999	999
114.61620320464135	0.7160015226399992	fixation_1	999	999
115.3323064588185	3.0069935136125423	face	2.3176691950357053	3
118.33935461161309	0.7160015226399992	fixation_2	999	999
118.88501561142039	1.0009406392055098	feedback win	999	999
119.88596892933128	3.2167636034137104	ITI	999	999
123.10761866439134	0.714841421082383	fixation_1	999	999
123.82258566503879	3.006917441409314	face	1.8007182184664998	2
126.82955442499951	0.714841421082383	fixation_2	999	999
127.3753874929389	1.0007951359730214	feedback win	999	999
128.3761862514075	1.118223797850078	ITI	999	999
129.49952500135987	0.7283321675786283	fixation_1	999	999
130.22796312670107	3.0063801057694945	face	2.0633047770534176	3
133.23439424918615	0.7283321675786283	fixation_2	999	999
133.7808054057241	1.0007450248813257	feedback win	999	999
134.7815631093108	1.1180206366989296	ITI	999	999
135.90451364938053	0.6618405073240865	fixation_1	999	999
136.56646343506873	3.0065560982911848	face	1.80120846175123	2
139.57307628565468	0.6618405073240865	fixation_2	999	999
140.11948804595158	1.000552429293748	feedback loss	999	999
141.12005255022086	1.1183312649955042	ITI	999	999
142.24355159522383	0.711615294276271	fixation_1	999	999
142.95528220533743	3.0072978025709745	face	1.5501380922505632	3
145.96263193024788	0.711615294276271	fixation_2	999	999
146.50795634058886	1.0007930228312034	feedback loss	999	999
147.50876264588442	7.4167158469499554	ITI	999	999
154.93058016247232	0.7182293523510452	fixation_1	999	999
155.6489200006763	3.0072117685049307	face	1.8006828992511146	3
158.6561827858677	0.7182293523510452	fixation_2	999	999
159.20174477100954	1.0009179986664094	feedback loss	999	999
160.20266578841256	3.216953482129611	ITI	999	999
163.4248377654003	0.7477345115330536	fixation_1	999	999
164.17268427216914	3.006637000507908	face	1.5503466871159617	2
167.17937379871728	0.7477345115330536	fixation_2	999	999
167.72578344590147	1.0006191434513312	feedback win	999	999
168.7264152680582	1.1182129304215778	ITI	999	999
169.84988533318392	0.7278974691289477	fixation_1	999	999
170.57789660876733	3.007140828121919	face	2.567725570028415	3
173.58508845360484	0.7278974691289477	fixation_2	999	999
174.13049074742594	1.0010441819613334	feedback loss	999	999
175.1315382499888	5.316925075807376	ITI	999	999
180.45395501656458	0.7326368900248781	fixation_1	999	999
181.1867171842605	3.0071073201252148	face	1.5498905556160025	2
184.1938755210722	0.7326368900248781	fixation_2	999	999
184.73951659718296	1.001016107678879	feedback loss	999	999
185.74053602549247	1.117515903461026	ITI	999	999
186.86333955294685	0.7118924145470373	fixation_1	999	999
187.57537203698303	3.0071510918496642	face	1.5512550258426927	2
190.58257867363864	0.7118924145470373	fixation_2	999	999
191.12818654361763	1.000905319931917	feedback win	999	999
192.12910424039	1.1175503171107266	ITI	999	999
193.2521498707647	0.6784145942656323	fixation_1	999	999
193.93071147764567	3.0068842352484353	face	1.8009228890005033	3
196.93764793709852	0.6784145942656323	fixation_2	999	999
197.4833324830688	1.0009358092211187	feedback win	999	999
198.48428066910128	5.316732178354869	ITI	999	999
203.8063261307252	0.733192036190303	fixation_1	999	999
204.53967966948403	3.007167694886448	face	1.8019438266928773	3
207.54690019233385	0.733192036190303	fixation_2	999	999
208.09209992873366	1.0009225267567672	feedback loss	999	999
209.093026077986	5.316613843751838	ITI	999	999
214.41500059922691	0.6997012353385799	fixation_1	999	999
215.11482318790513	3.0067665044334717	face	1.8006231281906366	2
218.1216407090251	0.6997012353385799	fixation_2	999	999
218.6677101442765	1.0007483454828616	feedback loss	999	999
219.66847086659982	3.2161909485585056	ITI	999	999
222.89005660437397	0.7150285829557106	fixation_1	999	999
223.60520805002307	3.006838048546342	face	1.800460418133298	3
226.61209741714993	0.7150285829557106	fixation_2	999	999
227.15774302135105	1.000862151995534	feedback loss	999	999
228.15861785205198	1.118567934143357	ITI	999	999
229.28274932297063	0.711069506185595	fixation_1	999	999
229.99395104992436	3.006941893196199	face	1.5507925549463835	2
233.0009424504533	0.711069506185595	fixation_2	999	999
233.54659892214113	1.0008621519664302	feedback loss	999	999
234.5474643947091	5.31662169250194	ITI	999	999
239.8697042631684	0.7159544303140137	fixation_1	999	999
240.5857945367461	3.0068160117662046	face	2.0675470115966164	3
243.59266428207047	0.7159544303140137	fixation_2	999	999
244.1387536409893	1.0008425301639363	feedback loss	999	999
245.13959949175478	1.117750157660339	ITI	999	999
246.2628165865317	0.7283288469770923	fixation_1	999	999
246.99127101307386	3.006850123492768	face	2.317718702397542	2
249.9981769832666	0.7283288469770923	fixation_2	999	999
250.54411721645738	1.0006961213075556	feedback win	999	999
251.5448257145763	1.1175922775873914	ITI	999	999
252.6679483228072	0.7116605753544718	fixation_1	999	999
253.3797459489142	3.007425797142787	face	1.5509280963451602	3
256.387226687104	0.7116605753544718	fixation_2	999	999
256.9326283771661	1.000752873631427	feedback loss	999	999
257.9333845713991	1.1176891791110393	ITI	999	999
259.0568102610705	0.6780411762010772	fixation_1	999	999
259.7349836580688	3.0076217133027967	face	1.800726369052427	3
262.74266001055366	0.6780411762010772	fixation_2	999	999
263.2878838968754	1.000832266465295	feedback win	999	999
264.28871918207733	3.217073627951322	ITI	999	999
267.51143604150275	0.713753467425704	fixation_1	999	999
268.22532112596673	3.006619189924095	face	1.5502998966549058	2
271.2319991813274	0.713753467425704	fixation_2	999	999
271.7780825027439	1.0009659966162872	feedback win	999	999
272.77906057433574	1.117562090192223	ITI	999	999
273.9024482278619	0.694644544943003	fixation_1	999	999
274.59722529546707	3.0071423374756705	face	1.8007915738562588	3
277.6044201590121	0.694644544943003	fixation_2	999	999
278.1499827479129	1.000926451117266	feedback win	999	999
279.15092127400567	3.216391392837977	ITI	999	999
282.37290186289465	0.6811586284311488	fixation_1	999	999
283.0541960327246	3.0068341241858434	face	1.8005244153901003	2
286.061080871732	0.6811586284311488	fixation_2	999	999
286.6073187526199	1.00045009405585	feedback win	999	999
287.60778152538114	5.316959187533939	ITI	999	999
292.9305780493596	0.7657177460496314	fixation_1	999	999
293.6964328461909	3.0067121671163477	face	2.0672768343938515	3
296.7032029730908	0.7657177460496314	fixation_2	999	999
297.249242522812	1.0007226862071548	feedback win	999	999
298.2499685296498	5.316735498956405	ITI	999	999
303.5727255081292	0.7324267857766245	fixation_1	999	999
304.3052905521472	3.0067133746342734	face	1.800423287670128	2
307.3120561509568	0.7324267857766245	fixation_2	999	999
307.8581101906311	1.0005237512814347	feedback win	999	999
308.8586460168881	1.1177118196501397	ITI	999	999
309.982932651008	0.7439405598270241	fixation_1	999	999
310.72702082718024	3.0069569869083352	face	2.0676807417476084	3
313.7340264157683	0.7439405598270241	fixation_2	999	999
314.2798694455705	1.000882377527887	feedback loss	999	999
315.28075514369993	1.1179083395982161	ITI	999	999
316.40462458805996	0.6941923377744388	fixation_1	999	999
317.09895790097653	3.0065524757956155	face	1.3002737090864684	2
320.10556078972877	0.6941923377744388	fixation_2	999	999
320.65188168594614	1.0009415448294021	feedback win	999	999
321.6528268532711	3.2164520694932435	ITI	999	999
324.8751844827202	0.7142892936535645	fixation_1	999	999
325.5896159589756	3.0064936103881337	face	1.8001832978625316	2
328.5961648123048	0.7142892936535645	fixation_2	999	999
329.14220134328934	1.0009044143080246	feedback loss	999	999
330.1431178325729	5.3166518798680045	ITI	999	999
335.46562395381625	0.7324938017700333	fixation_1	999	999
336.19825933445827	3.0065174584451597	face	2.063341907574795	2
339.20483203581534	0.7324938017700333	fixation_2	999	999
339.75107353919884	1.0006463121098932	feedback win	999	999
340.7517234738043	5.316836626734585	ITI	999	999
346.074596975639	0.7319151094416156	fixation_1	999	999
346.8066554752004	3.0070949432847556	face	1.5506561079237144	3
349.81380868013366	0.7319151094416156	fixation_2	999	999
350.3597477058356	1.0008856981585268	feedback win	999	999
351.3606457808055	11.616681372979656	ITI	999	999
362.98343074301374	0.7375163804390468	fixation_1	999	999
363.7211312665604	3.0066843947279267	face	2.3174989381514024	3
366.72787180982414	0.7375163804390468	fixation_2	999	999
367.2739131707931	1.0007202712295111	feedback loss	999	999
368.2746370645182	3.216725869162474	ITI	999	999
371.497319510323	0.7303188000223599	fixation_1	999	999
372.2277874360734	3.008033167483518	face	1.5508351191529073	2
375.2358824877301	0.7303188000223599	fixation_2	999	999
375.7807423140621	1.0007794385310262	feedback win	999	999
376.7815344312985	3.21664858944132	ITI	999	999
380.00412178682745	0.7141003205615561	fixation_1	999	999
380.71837093122303	3.006994721130468	face	1.8004561919078697	3
383.7254160653101	0.7141003205615561	fixation_2	999	999
384.27105170767754	1.0009753547201399	feedback loss	999	999
385.2720397411031	3.2176046242238954	ITI	999	999
388.49564954367816	0.7129411246278323	fixation_1	999	999
389.2087403977639	3.0071036976296455	face	1.5506769372150302	2
392.2158948102151	0.7129411246278323	fixation_2	999	999
392.76141574050416	1.000857925741002	feedback loss	999	999
393.76227728871163	5.31755901107681	ITI	999	999
399.08601082942914	0.7479735956876539	fixation_1	999	999
399.83415438013617	3.0064078781870194	face	1.5506787484628148	3
402.8406144825276	0.7479735956876539	fixation_2	999	999
403.38709476820077	1.0006478214636445	feedback loss	999	999
404.38774591029505	1.117126184195513	ITI	999	999
405.5109533450741	0.6950762246851809	fixation_1	999	999
406.2061844310956	3.0066523960849736	face	1.8004423056845553	2
409.21289146636263	0.6950762246851809	fixation_2	999	999
409.75885464195744	1.0008005696872715	feedback loss	999	999
410.7596591360052	5.316673312947387	ITI	999	999
416.08247196118464	0.7155598810932133	fixation_1	999	999
416.7981857979903	3.0066176805703435	face	1.5502787654695567	2
419.8048590233666	0.7155598810932133	fixation_2	999	999
420.3510652074765	1.0005690323887393	feedback win	999	999
421.3516469185706	1.1177863825287204	ITI	999	999
422.4756832992134	0.6940694750810508	fixation_1	999	999
423.1699311817938	3.006656924204435	face	2.3186964720953256	3
426.1766430470452	0.6940694750810508	fixation_2	999	999
426.7232727603114	1.0004718289710581	feedback loss	999	999
427.7237479099131	3.2170401199546177	ITI	999	999
430.9470295755018	0.6798928709758911	fixation_1	999	999
431.62708243966335	3.007143544993596	face	1.8008519486465957	2
434.63427730320836	0.6798928709758911	fixation_2	999	999
435.17984562771744	1.0005928804166615	feedback loss	999	999
436.18045088494546	1.1184209215571173	ITI	999	999
437.3051215027517	0.7102613896422554	fixation_1	999	999
438.01554318744456	3.0068051443086006	face	1.8005274341558106	2
441.02240025406354	0.7102613896422554	fixation_2	999	999
441.5685351959255	1.0008860000234563	feedback win	999	999
442.5694245165796	1.1177362714370247	ITI	999	999
443.6935315357114	0.6772786426299717	fixation_1	999	999
444.3709722846397	3.006774956913432	face	2.56866439798614	2
447.37780520133674	0.6772786426299717	fixation_2	999	999
447.92370528529864	1.000930677371798	feedback win	999	999
448.92464803761686	1.1175856363552157	ITI	999	999
450.04860683667357	0.6940996624471154	fixation_1	999	999
450.742869209178	3.0069035552151036	face	2.567677572078537	3
453.749828611064	0.6940996624471154	fixation_2	999	999
454.2955762486672	1.0008727175882086	feedback win	999	999
455.29645228685695	3.2164629369799513	ITI	999	999
458.5192853677727	0.730381287925411	fixation_1	999	999
459.2498302713793	3.006254828098463	face	2.3180788379977457	3
462.2561346068105	0.730381287925411	fixation_2	999	999
462.80268915346824	1.0010149001900572	feedback win	999	999
463.8037070723949	3.2162253621791024	ITI	999	999
467.02651962588425	0.6970371978241019	fixation_1	999	999
467.72373100495315	3.006627642433159	face	1.800383138412144	2
470.7304147959221	0.6970371978241019	fixation_2	999	999
471.27643713881844	1.0006019366555847	feedback loss	999	999
472.2770517541794	5.316889454668853	ITI	999	999
477.60043149860576	0.765061170241097	fixation_1	999	999
478.3656605107535	3.0072727470251266	face	2.3168906621576753	2
481.372985783848	0.765061170241097	fixation_2	999	999
481.9186374255514	1.0006140116020106	feedback loss	999	999
482.91926441772375	3.2168961260758806	ITI	999	999
486.1428129398846	0.6967567569226958	fixation_1	999	999
486.83974116120953	3.0081813875876833	face	1.549962703458732	3
489.84797809360316	0.6967567569226958	fixation_2	999	999
490.3923742415791	1.000903508713236	feedback loss	999	999
491.3932904289977	1.1171116942714434	ITI	999	999
492.5168317363714	0.7109330591629259	fixation_1	999	999
493.2279341467947	3.0068839334126096	face	1.8007257653516717	3
496.2348721156304	0.7109330591629259	fixation_2	999	999
496.7807069948176	1.0008289458346553	feedback win	999	999
497.78154861935764	1.11755605271901	ITI	999	999
498.9055720194301	0.6942379207466729	fixation_1	999	999
499.59999861137476	3.0066345855302643	face	2.0673692078271415	3
502.6066833079676	0.6942379207466729	fixation_2	999	999
503.15273523452925	1.000931281101657	feedback win	999	999
504.1536791943363	5.316429700644221	ITI	999	999
