TrialNumber,Trialn,Blockn,BlockType,Partner,Feedback,ITI,ran,order,studyStart,InitFixOnset,decision_onset,resp,resp_onset,rt,outcome_val,outcome_onset,outcome_offset,trialDuration,ITIonset,ITIoffset
1,1,1,1,1,1,0.750000,1.0,0.0,3.3206034e-06,0.005501636,4.0142865,2.0,4.8725653,0.85827905,8.0,6.530414,7.543929,3.5296428,7.5441566,8.308399
2,2,1,1,1,1,0.750000,1.0,1.0,--,--,8.31179,2.0,8.792369,0.48057795,9.0,10.829026,11.836794,3.5250027,11.836974,12.595162
3,3,1,1,1,1,0.750000,1.0,2.0,--,--,12.597334,3.0,13.02913,0.43179616,4.0,15.116008,16.123854,3.5265203,16.12403,16.882063
4,4,1,1,1,2,0.750000,1.0,3.0,--,--,16.884262,3.0,17.33271,0.4484475,5.0,19.400993,20.410866,3.5266037,20.411041,21.16883
5,5,1,1,1,1,0.750000,1.0,4.0,--,--,21.171057,3.0,21.552797,0.3817396,1.0,23.688564,24.698837,3.5277793,24.699009,25.455702
6,6,1,1,1,1,0.750000,1.0,5.0,--,--,25.457903,2.0,25.956366,0.4984615,7.0,27.97563,28.984835,3.526932,28.985008,29.742826
7,7,1,1,1,2,0.750000,1.0,6.0,--,--,29.745031,2.0,30.443302,0.6982716,5.0,32.262318,33.27143,3.526399,33.27161,34.02964
8,8,1,1,1,1,12,1.0,7.0,--,--,34.03183,2.0,34.630424,0.5985958,9.0,36.54999,37.558807,3.5269773,37.558983,49.559086
9,9,2,6,3,1,0.750000,1.0,8.0,--,--,49.588192,3.0,50.05972,0.4715275,3.0,52.10536,53.113483,3.5252914,53.113655,53.87943
10,10,2,6,3,3,0.750000,1.0,9.0,--,--,53.904503,3.0,54.49668,0.5921786,9.0,56.42194,57.431778,3.527278,57.431953,58.182972
11,11,2,6,3,3,0.750000,1.0,10.0,--,--,58.202175,3.0,58.700325,0.4981509,7.0,60.719067,61.726753,3.5245786,61.726933,62.48629
12,12,2,6,3,3,0.750000,1.0,11.0,--,--,62.5054,3.0,63.287,0.7815991,6.0,65.02289,66.032455,3.527055,66.03263,66.78961
13,13,2,6,3,2,0.750000,1.0,12.0,--,--,66.808304,2.0,67.22381,0.41550076,5.0,69.32592,70.33533,3.5270247,70.33551,71.093575
14,14,2,6,3,3,0.750000,1.0,13.0,--,--,71.11244,2.0,71.510666,0.39822578,3.0,73.62961,74.63832,3.525881,74.6385,75.39659
15,15,2,6,3,3,0.750000,1.0,14.0,--,--,75.415276,2.0,75.981186,0.5659135,3.0,77.93217,78.93973,3.524455,78.9399,79.700264
16,16,2,6,3,3,12,1.0,15.0,--,--,79.71921,2.0,80.18449,0.46528202,4.0,82.23621,83.24372,3.5245128,83.2439,95.24683
17,17,3,3,2,2,0.750000,1.0,16.0,--,--,95.35368,3.0,96.097755,0.7440672,5.0,97.87085,98.87971,3.5260234,98.87988,99.6335
18,18,3,3,2,1,0.750000,1.0,17.0,--,--,99.72554,3.0,100.28408,0.55853814,4.0,102.24287,103.250916,3.5253696,103.25108,104.00398
19,19,3,3,2,1,0.750000,1.0,18.0,--,--,104.08196,2.0,104.9548,0.8728405,9.0,106.5996,107.60664,3.5246778,107.60681,108.35728
20,20,3,3,2,1,0.750000,1.0,19.0,--,--,108.434425,3.0,109.09179,0.6573644,3.0,110.951645,111.95938,3.524959,111.95956,112.71091
21,21,3,3,2,1,0.750000,1.0,20.0,--,--,112.78796,2.0,113.82881,1.0408546,6.0,115.30513,116.312645,3.5246842,116.31281,117.06452
22,22,3,3,2,1,0.750000,1.0,21.0,--,--,117.138374,3.0,117.531906,0.39353737,1.0,119.65579,120.66368,3.5253103,120.66386,121.418106
23,23,3,3,2,2,0.750000,1.0,22.0,--,--,121.49294,2.0,122.952576,1.4596353,5.0,124.01049,125.01964,3.5266979,125.019806,125.771454
24,24,3,3,2,1,10,1.0,23.0,--,--,125.84498,3.0,126.205475,0.36049828,2.0,128.36212,129.37164,3.5266702,129.37183,139.38312
25,25,4,4,2,3,0.750000,1.0,24.0,--,--,139.47313,2.0,140.38422,0.9110887,3.0,141.98979,142.99901,3.525876,142.99919,143.75345
26,26,4,4,2,3,0.750000,1.0,25.0,--,--,143.8255,2.0,144.27043,0.44494364,3.0,146.34373,147.3506,3.5251093,147.35078,148.10675
27,27,4,4,2,3,0.750000,1.0,26.0,--,--,148.18152,2.0,148.69101,0.5094853,1.0,150.69876,151.70561,3.5240924,151.7058,152.46039
28,28,4,4,2,3,0.750000,1.0,27.0,--,--,152.53429,3.0,153.5284,0.99411076,6.0,155.05087,156.05768,3.5233877,156.05785,156.81409
29,29,4,4,2,3,0.750000,1.0,28.0,--,--,156.8886,3.0,157.36462,0.47602206,9.0,159.40471,160.41235,3.5237513,160.41254,161.16763
30,30,4,4,2,3,0.750000,1.0,29.0,--,--,161.24149,3.0,162.21886,0.9773761,6.0,163.7587,164.76555,3.5240612,164.76572,165.52121
31,31,4,4,2,1,0.750000,1.0,30.0,--,--,165.5957,2.0,166.2052,0.60949284,6.0,168.11353,169.12234,3.5266333,169.12251,169.87486
32,32,4,4,2,1,8,1.0,31.0,--,--,169.9508,3.0,170.62584,0.6750346,4.0,172.46712,173.47397,3.523173,173.47415,181.48405
33,33,5,5,3,1,0.750000,1.0,32.0,--,--,181.5113,2.0,182.50218,0.9908789,8.0,184.02861,185.03654,3.5252383,185.03673,185.78758
34,34,5,5,3,1,0.750000,1.0,33.0,--,--,185.80807,3.0,186.25525,0.4471799,2.0,188.32565,189.33252,3.5244455,189.33269,190.0914
35,35,5,5,3,1,0.750000,1.0,34.0,--,--,190.11041,2.0,190.74213,0.63172364,6.0,192.62868,193.63675,3.5263405,193.63693,194.39505
36,36,5,5,3,3,0.750000,1.0,35.0,--,--,194.4138,2.0,194.81215,0.3983405,4.0,196.9296,197.93956,3.52575,197.93973,198.69849
37,37,5,5,3,1,0.750000,1.0,36.0,--,--,198.71735,3.0,199.21587,0.4985125,2.0,201.23512,202.24335,3.526002,202.24353,203.00189
38,38,5,5,3,3,0.750000,1.0,37.0,--,--,203.02145,3.0,203.25247,0.2310204,7.0,205.53818,206.54747,3.5260186,206.54764,207.30568
39,39,5,5,3,1,0.750000,1.0,38.0,--,--,207.32466,3.0,207.90665,0.5819753,3.0,209.84178,210.85054,3.5258677,210.85071,211.6091
40,40,5,5,3,1,10,1.0,39.0,--,--,211.628,2.0,212.2765,0.64850026,8.0,214.1456,215.15248,3.5244794,215.15266,225.15353
41,41,6,2,1,2,0.750000,1.0,40.0,--,--,225.19826,0.0,999.0,999.0,999.0,227.70602,228.72345,3.5251954,228.72362,229.47382
42,42,6,2,1,3,0.750000,1.0,41.0,--,--,229.47609,2.0,230.0253,0.5492109,1.0,231.99278,233.00244,3.5263557,233.00261,233.76126
43,43,6,2,1,3,0.750000,1.0,42.0,--,--,233.7635,2.0,234.24474,0.48123753,1.0,236.28055,237.28743,3.523927,237.28761,238.04767
44,44,6,2,1,3,0.750000,1.0,43.0,--,--,238.0499,2.0,238.58173,0.53184354,2.0,240.56815,241.57573,3.525846,241.57591,242.33417
45,45,6,2,1,2,0.750000,1.0,44.0,--,--,242.33643,2.0,242.76816,0.4317349,5.0,244.85454,245.86424,3.5278199,245.86443,246.62125
46,46,6,2,1,3,0.750000,1.0,45.0,--,--,246.62347,3.0,247.0885,0.46502513,6.0,249.14136,250.15039,3.5269217,250.15057,250.90785
47,47,6,2,1,3,0.750000,1.0,46.0,--,--,250.91002,3.0,251.99245,1.0824158,9.0,253.42754,254.4344,3.5243797,254.43459,255.1949
48,48,6,2,1,3,8,1.0,47.0,--,--,255.19717,3.0,255.69563,0.49846995,6.0,257.7145,258.72235,3.5251963,258.72253,266.73782
49,49,7,5,3,1,0.750000,1.0,48.0,--,--,266.76337,2.0,267.45544,0.6920503,8.0,269.2805,270.28937,3.5259936,270.28955,271.04126
50,50,7,5,3,1,0.750000,1.0,49.0,--,--,271.06433,3.0,271.4756,0.41126698,3.0,273.58188,274.5894,3.5250423,274.58954,275.34515
51,51,7,5,3,1,0.750000,1.0,50.0,--,--,275.364,3.0,275.81244,0.44843933,3.0,277.88123,278.888,3.5239837,278.88815,279.64822
52,52,7,5,3,1,0.750000,1.0,51.0,--,--,279.66678,2.0,280.2159,0.5491309,8.0,282.18347,283.19135,3.5245564,283.19153,283.95206
53,53,7,5,3,1,0.750000,1.0,52.0,--,--,283.97076,3.0,284.35272,0.3819666,4.0,286.48846,287.49533,3.5245838,287.4955,288.25555
54,54,7,5,3,2,0.750000,1.0,53.0,--,--,288.27454,3.0,289.22327,0.9487169,5.0,290.7918,291.80133,3.5267727,291.80148,292.5591
55,55,7,5,3,3,0.750000,1.0,54.0,--,--,292.5782,3.0,292.90945,0.33127394,7.0,295.09546,296.10425,3.5260487,296.1044,296.86218
56,56,7,5,3,1,12,1.0,55.0,--,--,296.8832,3.0,297.54697,0.663737,2.0,299.40024,300.40903,3.5257986,300.4092,312.42548
57,57,8,4,2,2,0.750000,1.0,56.0,--,--,312.51517,2.0,313.8933,1.3781518,5.0,315.0333,316.04227,3.5271091,316.04245,316.79584
58,58,8,4,2,3,0.750000,1.0,57.0,--,--,316.88452,2.0,317.34674,0.46221018,1.0,319.40216,320.41177,3.5272365,320.41193,321.1659
59,59,8,4,2,3,0.750000,1.0,58.0,--,--,321.2443,3.0,321.68332,0.43903568,8.0,323.76138,324.76825,3.5239723,324.76843,325.51932
60,60,8,4,2,3,0.750000,1.0,59.0,--,--,325.59644,2.0,326.137,0.54055285,3.0,328.1144,329.1222,3.5257566,329.12238,329.87335
61,61,8,4,2,3,0.750000,1.0,60.0,--,--,329.95056,3.0,330.29028,0.33974904,7.0,332.46838,333.47522,3.5246692,333.4754,334.22662
62,62,8,4,2,3,0.750000,1.0,61.0,--,--,334.30286,2.0,335.47812,1.1752596,1.0,336.81992,337.82678,3.523934,337.82697,338.58047
63,63,8,4,2,3,0.750000,1.0,62.0,--,--,338.65805,2.0,339.14764,0.48956802,4.0,341.17587,342.1832,3.5251231,342.18335,342.93396
64,64,8,4,2,2,8,1.0,63.0,--,--,343.01096,2.0,343.3844,0.3734251,5.0,345.52805,346.5372,3.5262377,346.53738,354.5434
65,65,9,6,3,1,0.750000,1.0,64.0,--,--,354.5699,2.0,355.9949,1.4250333,8.0,357.08673,358.096,3.5261405,358.0962,358.84702
66,66,9,6,3,3,0.750000,1.0,65.0,--,--,358.86603,3.0,359.36432,0.4983021,9.0,361.3824,362.39117,3.525158,362.39136,363.15036
67,67,9,6,3,3,0.750000,1.0,66.0,--,--,363.16956,3.0,364.33508,1.1655347,7.0,365.68658,366.69418,3.5246284,366.69434,367.45392
68,68,9,6,3,3,0.750000,1.0,67.0,--,--,367.4728,3.0,368.43866,0.9658488,7.0,369.9903,370.99713,3.5243287,370.9973,371.75763
69,69,9,6,3,3,0.750000,1.0,68.0,--,--,371.77692,2.0,372.2415,0.46457294,2.0,374.29532,375.30212,3.5251987,375.30234,376.06125
70,70,9,6,3,1,0.750000,1.0,69.0,--,--,376.08093,2.0,376.62863,0.54770184,8.0,378.5983,379.60812,3.5271857,379.6083,380.36447
71,71,9,6,3,3,0.750000,1.0,70.0,--,--,380.38336,2.0,380.73193,0.34858638,1.0,382.90033,383.90918,3.5258086,383.9094,384.6682
72,72,9,6,3,3,10,1.0,71.0,--,--,384.6871,3.0,386.13617,1.4490513,8.0,387.20428,388.21152,3.5244172,388.2117,398.21268
