TrialNumber,nTrial,Block,Endowment,ITI,ISI,L_Option,R_Option,ran,order,cue_Onset,endowment_onset,endowment_offset,ISI_onset,ISI_offset,decision_onset,resp,rt,resp_onset,decision_offset,trialDuration,ITIonset,ITIoffset
1,1,3,23,1,1.5,10,0,1.0,0.0,5.0038624,6.0023394,6.01916,6.0193806,7.5371017,7.5372734,2.0,2.649389,10.186663,11.053065,3.5164025,11.053796,12.05505
2,2,3,25,1,4.5,2,0,1.0,1.0,13.053868,14.05243,14.069172,14.069316,18.586813,18.586958,3.0,2.1837277,20.770685,22.103966,3.5175333,22.104595,23.106125
3,3,3,25,3,1.5,2,0,1.0,2.0,24.103844,25.102425,25.118979,25.119137,26.636148,26.636286,3.0,1.8506016,28.486887,30.152075,3.516305,30.15269,33.154083
4,4,1,25,3,4.5,8,5,1.0,3.0,34.153927,35.152424,35.169174,35.169357,39.686928,39.687042,999.0,999.0,999.0,42.70247,3.533348,43.220528,46.222134
5,5,2,15,3,3,1,7,1.0,4.0,47.22056,48.219173,48.235806,48.235992,51.253197,51.25331,2.0,1.333511,52.586823,54.770035,3.5172486,54.77066,57.771732
6,6,2,19,5,3,1,6,1.0,5.0,58.770565,59.768883,59.785545,59.785645,62.80235,62.802464,2.0,0.7344377,63.5369,66.31931,3.5173757,66.31994,71.32083
7,7,3,19,1,3,0,9,1.0,6.0,72.32062,73.319145,73.335724,73.33588,76.35313,76.35328,3.0,1.3001704,77.65345,79.869316,3.5165951,79.86997,80.87295
8,8,2,23,1,3,7,1,1.0,7.0,81.87093,82.8692,82.88571,82.88591,85.90317,85.903275,3.0,1.1662182,87.069496,89.42113,3.518645,89.42202,90.42583
9,9,2,17,1,1.5,8,3,1.0,8.0,91.42057,92.41923,92.43558,92.435745,93.95315,93.953255,3.0,1.3662176,95.31947,97.471176,3.518437,97.471794,98.474174
10,10,2,15,5,4.5,5,1,1.0,9.0,99.469955,100.468895,100.48586,100.48609,105.00414,105.00426,3.0,1.0152425,106.0195,108.522194,3.5184495,108.522804,113.52384
11,11,1,15,1,1.5,7,1,1.0,10.0,114.52025,115.51923,115.535645,115.53583,117.05316,117.05328,2.0,1.5503461,118.60363,120.5702,3.5174344,120.570816,121.57188
12,12,2,19,1,1.5,1,6,1.0,11.0,122.570724,123.56889,123.585686,123.58587,125.10319,125.10331,2.0,1.3161904,126.419495,128.621,3.5182717,128.62172,129.62321
13,13,3,23,5,3,4,0,1.0,12.0,130.62065,131.61917,131.6359,131.63605,134.65318,134.65332,2.0,2.1334343,136.78676,138.17122,3.518424,138.17184,143.17392
14,14,3,15,1,1.5,0,3,1.0,13.0,144.17067,145.16896,145.18588,145.18604,146.70311,146.70325,3.0,1.5334877,148.23672,150.22023,3.517511,150.22086,151.22243
15,15,3,19,1,1.5,9,0,1.0,14.0,152.22075,153.21927,153.23601,153.23619,154.75333,154.75346,2.0,1.2832518,156.03671,158.2694,3.5164561,158.27002,159.27193
16,16,1,25,3,1.5,2,8,1.0,15.0,160.27043,161.26926,161.28574,161.28592,162.80414,162.80426,2.0,1.4327971,164.23706,166.32126,3.5175161,166.32187,169.32318
17,17,3,17,3,3,0,5,1.0,16.0,170.3207,171.31923,171.33574,171.33588,174.35327,174.35341,3.0,2.0660985,176.41951,177.87125,3.5183551,177.87187,180.87329
18,18,3,15,8,1.5,7,0,1.0,17.0,181.871,182.86925,182.8857,182.88588,184.40439,184.40453,2.0,1.3649137,185.76944,187.92241,3.5183985,187.92302,195.92464
19,19,2,17,5,3,3,8,1.0,18.0,196.92075,197.91885,197.93553,197.93565,200.9523,200.95242,2.0,1.3515247,202.30394,204.46729,3.5153947,204.46791,209.4703
20,20,3,17,3,1.5,1,0,1.0,19.0,210.47063,211.46893,211.48569,211.48582,213.00333,213.00346,3.0,2.0161276,215.01959,216.5205,3.5175407,216.5211,219.52223
21,21,1,17,1,1.5,8,3,1.0,20.0,220.5211,221.51898,221.53552,221.53566,223.05338,223.0535,3.0,1.2503103,224.3038,226.56892,3.515957,226.56955,227.57135
22,22,2,15,8,4.5,1,3,1.0,21.0,228.57066,229.569,229.58551,229.58562,234.10338,234.10349,2.0,0.7330124,234.8365,237.62035,3.5173786,237.62097,245.62303
23,23,1,17,1,1.5,3,8,1.0,22.0,246.62108,247.61926,247.63574,247.63593,249.1535,249.15363,2.0,1.0500704,250.20369,252.67012,3.5170157,252.67073,253.67238
24,24,1,23,3,1.5,4,7,1.0,23.0,254.67044,255.66927,255.68575,255.68593,257.20438,257.2045,2.0,1.598988,258.80347,260.72116,3.5171812,260.72177,263.7234
25,25,2,15,1,1.5,1,7,1.0,24.0,264.7206,265.71924,265.73578,265.736,267.2534,267.2535,2.0,0.6330873,267.8866,270.7714,3.5183868,270.772,271.77304
26,26,1,23,1,1.5,4,1,1.0,25.0,272.77078,273.76926,273.78577,273.78595,275.30338,275.3035,2.0,0.9336433,276.23712,278.8204,3.5174155,278.821,279.8226
27,27,1,25,1,1.5,2,5,1.0,26.0,280.82068,281.8189,281.8355,281.83563,283.3534,283.35352,3.0,2.0829186,285.43643,286.8715,3.5184965,286.8721,287.87344
28,28,1,19,1,4.5,4,1,1.0,27.0,288.87076,289.86893,289.88556,289.8857,294.403,294.4031,2.0,2.1337464,296.53687,297.92044,3.5178435,297.92108,298.92218
29,29,1,25,3,3,11,5,1.0,28.0,299.92078,300.91928,300.9358,300.93597,303.95343,303.95355,3.0,1.5337054,305.48724,307.47046,3.5174346,307.47107,310.47256
30,30,2,15,3,3,5,1,1.0,29.0,311.47067,312.46896,312.48553,312.48566,315.50244,315.50253,3.0,1.7014753,317.204,319.01813,3.5160837,319.01874,322.02048
31,31,3,15,8,1.5,0,5,1.0,30.0,323.02063,324.01895,324.0356,324.03574,325.55402,325.55417,2.0,1.949492,327.50366,329.0695,3.5158298,329.0701,337.0715
32,32,1,15,3,1.5,7,5,1.0,31.0,338.07077,339.0693,339.08588,339.0861,340.6035,340.60358,3.0,1.433705,342.0373,344.12048,3.5174272,344.12112,347.12225
33,33,3,21,1,3,1,0,1.0,32.0,348.12042,349.11887,349.13553,349.1356,352.15353,352.15366,3.0,1.9157798,354.06943,355.6717,3.518547,355.6723,356.67346
34,34,1,17,5,1.5,5,8,1.0,33.0,357.6707,358.66925,358.6859,358.6861,360.20282,360.20294,2.0,1.7339572,361.9369,363.72006,3.5176444,363.7207,368.7227
35,35,2,17,1,4.5,3,5,1.0,34.0,369.7206,370.71924,370.73587,370.7361,375.2535,375.2536,999.0,999.0,999.0,378.26926,3.5332015,378.78696,379.78824
36,36,2,15,1,1.5,1,7,1.0,35.0,380.78732,381.7859,381.80255,381.8028,383.31992,383.32004,2.0,1.4836944,384.80374,386.83664,3.517118,386.83725,387.83875
