onset	duration	trial_type	rt	resp
0.000358300021616742	0.768891599989729	fixation_1	999	999
0.7693340000114404	3.006295400002273	face	1.8021720999968238	2
3.775677400000859	0.768891599989729	fixation_2	999	999
4.322544200025732	1.0007292999944184	feedback loss	999	999
5.32327650001389	5.316453700012062	ITI	999	999
10.646371200011345	0.7653464000031818	fixation_1	999	999
11.411794300016481	3.062569000001531	face	n/a	n/a
14.474404600012349	0.7653464000031818	fixation_2	999	999
15.03114770000684	1.0008530000050087	feedback win	999	999
16.032004000007873	5.316995400004089	ITI	999	999
21.35307599999942	0.7506859000131954	fixation_1	999	999
22.103863399999682	3.0658192000119016	face	n/a	n/a
25.169722000020556	0.7506859000131954	fixation_2	999	999
25.723437200009357	1.000799100002041	feedback loss	999	999
26.7242394000059	5.3165100000042	ITI	999	999
32.04481420002412	0.7511279999744147	fixation_1	999	999
32.796020000008866	3.063710699992953	face	n/a	n/a
35.85978020000039	0.7511279999744147	fixation_2	999	999
36.415567400021246	1.0008162999874912	feedback loss	999	999
37.41638680000324	1.1179628999962006	ITI	999	999
38.53852630002075	0.6793518000049517	fixation_1	999	999
39.217959400004474	3.066512599994894	face	n/a	n/a
42.284512800019	0.6793518000049517	fixation_2	999	999
42.83756660000654	1.0008530000050087	feedback loss	999	999
43.83842280000681	1.1178035000048112	ITI	999	999
44.96039839999867	0.6628580000251532	fixation_1	999	999
45.62333560001571	3.0656839000002947	face	n/a	n/a
48.68905770001584	0.6628580000251532	fixation_2	999	999
49.24295310000889	1.0007542000093963	feedback win	999	999
50.243710300012026	1.1179252000001725	ITI	999	999
51.365844200016	0.7292699000099674	fixation_1	999	999
52.09523910001735	3.006484999990789	face	1.8014535999973305	3
55.10177390000899	0.7292699000099674	fixation_2	999	999
55.64818180000293	1.0006514000124298	feedback win	999	999
56.64883630000986	3.2170085000107065	ITI	999	999
59.87014020001516	0.6986703999864403	fixation_1	999	999
60.568889600021066	3.0644689000037033	face	n/a	n/a
63.63339660002384	0.6986703999864403	fixation_2	999	999
64.18842550000409	1.000784300005762	feedback loss	999	999
65.1892133000074	3.217024899990065	ITI	999	999
68.41050600001472	0.6819916999957059	fixation_1	999	999
69.09257730000536	3.006401699996786	face	2.568423699995037	3
72.099028800003	0.6819916999957059	fixation_2	999	999
72.64544200000819	1.0007624000136275	feedback win	999	999
73.64620770001784	1.1180227999866474	ITI	999	999
74.76857300000847	0.7292534000007436	fixation_1	999	999
75.49790580000263	3.06570490001468	face	n/a	n/a
78.56364920001943	0.7292534000007436	fixation_2	999	999
79.11736450000899	1.0008497000089847	feedback win	999	999
80.11821720001171	3.2170871999987867	ITI	999	999
83.3396228000056	0.6817934999999125	fixation_1	999	999
84.02156970000942	3.063503400015179	face	n/a	n/a
87.08511330001056	0.6817934999999125	fixation_2	999	999
87.64118170001893	1.0008819999929983	feedback loss	999	999
88.64206710000872	5.316791299992474	ITI	999	999
93.96325860000798	0.750102699996205	fixation_1	999	999
94.71344420002424	3.0062513999873772	face	1.5510116999794263	2
97.71974440000486	0.750102699996205	fixation_2	999	999
98.26663600001484	1.0007356999849435	feedback loss	999	999
99.26737480002339	5.316920199984452	ITI	999	999
104.58866230002604	0.7337196999869775	fixation_1	999	999
105.32246700001997	3.00695129999076	face	1.5508788999868557	3
108.32946750000701	0.7337196999869775	fixation_2	999	999
108.87519180000527	1.0009423000155948	feedback win	999	999
109.87613730001613	5.316933699999936	ITI	999	999
115.19771480001509	0.7333212000085041	fixation_1	999	999
115.93120250001084	3.063041699992027	face	n/a	n/a
118.99428420001641	0.7333212000085041	fixation_2	999	999
119.55076720000943	1.0007998000073712	feedback win	999	999
120.5515701000113	3.216997999988962	ITI	999	999
123.77305630000774	0.6984070999897085	fixation_1	999	999
124.47158650000347	3.006803800002672	face	1.3007068000151776	3
127.47843980000471	0.6984070999897085	fixation_2	999	999
128.02443770001992	1.0007914000016171	feedback win	999	999
129.02523220001603	1.117957699985709	ITI	999	999
130.14771499999915	0.7457045000046492	fixation_1	999	999
130.89354180000373	3.065589700010605	face	n/a	n/a
133.95917110002483	0.7457045000046492	fixation_2	999	999
134.51313649999793	1.0006911000236869	feedback win	999	999
135.51383090001764	1.1181749999814201	ITI	999	999
136.6365488000156	0.6621780999994371	fixation_1	999	999
137.2988050999993	3.0637567000230774	face	n/a	n/a
140.36262170001282	0.6621780999994371	fixation_2	999	999
140.9183508999995	1.0008242000185419	feedback loss	999	999
141.9191783000133	1.1179846999875735	ITI	999	999
143.04173009999795	0.7289522000064608	fixation_1	999	999
143.7708021000144	3.0626768000074662	face	n/a	n/a
146.83351980001316	0.7289522000064608	fixation_2	999	999
147.37371300000814	1.0007346000056714	feedback loss	999	999
148.37445080000907	7.417002400005003	ITI	999	999
155.79618740000296	0.7517136000096798	fixation_1	999	999
156.54798170001595	3.006466399994679	face	1.3004557999956887	2
159.5544976000092	0.7517136000096798	fixation_2	999	999
160.10085600000457	1.0008032000041567	feedback loss	999	999
161.10166230000323	3.2169664000102784	ITI	999	999
164.32324720002362	0.7484005999867804	fixation_1	999	999
165.07172580002225	3.0631737999792676	face	n/a	n/a
168.13493930001277	0.7484005999867804	fixation_2	999	999
168.69121520000044	1.0008975000237115	feedback win	999	999
169.69211580001866	1.1179851999913808	ITI	999	999
170.814790000004	0.7288640000042506	fixation_1	999	999
171.5437333000009	3.0649701000074856	face	n/a	n/a
174.60874470000272	0.7288640000042506	fixation_2	999	999
175.1632504000154	1.0008483999990858	feedback loss	999	999
176.16410200000973	5.3164261000056285	ITI	999	999
181.48523040002328	0.7339145999867469	fixation_1	999	999
182.21922850000556	3.006972900009714	face	1.8009087000100408	2
185.22624720001477	0.7339145999867469	fixation_2	999	999
185.7720119000005	1.0008894000202417	feedback loss	999	999
186.772904500016	1.1178964999853633	ITI	999	999
187.89553700000397	0.7121657000097912	fixation_1	999	999
188.60778240000946	3.0066435000044294	face	0.5335745000047609	2
191.61447300002328	0.7121657000097912	fixation_2	999	999
192.16085230000317	1.000544800015632	feedback win	999	999
193.1614002000133	1.1182513000094332	ITI	999	999
194.28441920000478	0.6784846000082325	fixation_1	999	999
194.96302039999864	3.00640170002589	face	1.0332601000263821	2
197.96947140002158	0.6784846000082325	fixation_2	999	999
198.51587610002025	1.0008205999911297	feedback win	999	999
199.51669990000664	5.316879399993923	ITI	999	999
204.83838310002466	0.7666528999980073	fixation_1	999	999
205.60511830000905	3.0647851999965496	face	n/a	n/a
208.66994330001762	0.7666528999980073	fixation_2	999	999
209.22463969999808	1.0010077000188176	feedback loss	999	999
210.22565090001444	5.316824999987148	ITI	999	999
215.5473472000158	0.7164729000069201	fixation_1	999	999
216.26390210000682	3.006889100011904	face	1.0339145000034478	3
219.2708391000051	0.7164729000069201	fixation_2	999	999
219.8168011000089	1.0006788999889977	feedback loss	999	999
220.817483300023	3.2170785999915097	ITI	999	999
224.03944839999895	0.6981735000154004	fixation_1	999	999
224.73770600001444	3.34104309999384	face	3.3352905999927316	3
228.07881240002462	0.6981735000154004	fixation_2	999	999
228.62371110002277	1.0012012999795843	feedback loss	999	999
229.6249154000252	1.1178661999874748	ITI	999	999
230.74772130002384	0.7118922999943607	fixation_1	999	999
231.45969519999926	3.063247100013541	face	n/a	n/a
234.52298280000105	0.7118922999943607	fixation_2	999	999
235.07934039999964	1.0008352000149898	feedback loss	999	999
236.08017870000913	5.316823600005591	ITI	999	999
241.40192560001742	0.7331954999826849	fixation_1	999	999
242.13524699999834	3.0069977000239305	face	1.033806400024332	3
245.14229600000544	0.7331954999826849	fixation_2	999	999
245.6881168000109	1.0007949999999255	feedback loss	999	999
246.68891490000533	1.1179850000189617	ITI	999	999
247.8118625000061	0.7119051000045147	fixation_1	999	999
248.52384830001392	3.0067188999964856	face	1.0336581000010483	3
251.53061529999832	0.7119051000045147	fixation_2	999	999
252.07664790001581	1.0008417000062764	feedback win	999	999
253.0774927000166	1.1179920999857131	ITI	999	999
254.2005657000118	0.7283744000014849	fixation_1	999	999
254.9290222999989	3.065911600016989	face	n/a	n/a
257.9949732000241	0.7283744000014849	fixation_2	999	999
258.54837600002065	1.001077399996575	feedback loss	999	999
259.54945770002087	1.118248799990397	ITI	999	999
260.67290510001476	0.6944842000084464	fixation_1	999	999
261.36746910001966	3.0064490999793634	face	1.0344143999973312	2
264.37396730002365	0.6944842000084464	fixation_2	999	999
264.92061690002447	1.0009408999758307	feedback win	999	999
265.9215612000262	3.2167378999874927	ITI	999	999
269.143518900004	0.7318864999979269	fixation_1	999	999
269.8755192000244	3.0682755999732763	face	n/a	n/a
272.9438419000071	0.7318864999979269	fixation_2	999	999
273.4941429000173	1.0007350000087172	feedback win	999	999
274.49488100002054	1.1184342000051402	ITI	999	999
275.6185583000188	0.7115660999843385	fixation_1	999	999
276.3301997000235	3.0666177999810316	face	n/a	n/a
279.39686249999795	0.7115660999843385	fixation_2	999	999
279.9496089000022	1.0012690000003204	feedback win	999	999
280.95088100002613	3.2161678999837022	ITI	999	999
284.1727515000093	0.6643740000145044	fixation_1	999	999
284.83722350001335	3.066306299995631	face	n/a	n/a
287.90357260001474	0.6643740000145044	fixation_2	999	999
288.4563842000207	1.0007550999871455	feedback win	999	999
289.45714260000386	5.317247900005896	ITI	999	999
294.7798049999983	0.799397000024328	fixation_1	999	999
295.5793294000032	3.0636674000124913	face	n/a	n/a
298.64304210001137	0.799397000024328	fixation_2	999	999
299.1987145000021	1.0009327000007033	feedback win	999	999
300.19965200001025	5.317579199996544	ITI	999	999
305.52269920002436	0.7652124999731313	fixation_1	999	999
306.2880147000251	3.0069684999762103	face	1.3004744999925606	2
309.29503900001873	0.7652124999731313	fixation_2	999	999
309.8407674000191	1.0009699999936856	feedback win	999	999
310.84174060000805	1.1179588999948464	ITI	999	999
311.96495950000826	0.7449590000032913	fixation_1	999	999
312.7100697999995	3.0067702000087593	face	1.550668100011535	3
315.7168934000074	0.7449590000032913	fixation_2	999	999
316.2629599000211	1.0008219000010286	feedback loss	999	999
317.2637849000166	1.1178132999921218	ITI	999	999
318.3920346000232	0.7065045999770518	fixation_1	999	999
319.09866150000016	3.0655711000144947	face	n/a	n/a
322.1642747000151	0.7065045999770518	fixation_2	999	999
322.7182724000013	1.0007735000108369	feedback win	999	999
323.7190491000074	3.2168230999959633	ITI	999	999
326.94130160001805	0.714242899994133	fixation_1	999	999
327.65566930000205	3.0662451999960467	face	n/a	n/a
330.7219549000147	0.714242899994133	fixation_2	999	999
331.27547069999855	1.000558200001251	feedback loss	999	999
332.2760320000234	5.317008999991231	ITI	999	999
337.5984563000093	0.7492649999912828	fixation_1	999	999
338.3478069000121	3.0636265999928582	face	n/a	n/a
341.41147300001467	0.7492649999912828	fixation_2	999	999
341.9674478000088	1.000794899999164	feedback win	999	999
342.96824590000324	5.316920200013556	ITI	999	999
348.2905515000166	0.7492636000097264	fixation_1	999	999
349.0398943000182	3.006995799980359	face	1.300898599991342	3
352.0469389000209	0.7492636000097264	fixation_2	999	999
352.5928678000055	1.000821099994937	feedback win	999	999
353.593692000024	11.617021299985936	ITI	999	999
365.21632410000893	0.7542017000087071	fixation_1	999	999
365.97067140002036	3.0650794999965	face	n/a	n/a
369.03578980002203	0.7542017000087071	fixation_2	999	999
369.59022700000787	1.0008063999994192	feedback loss	999	999
370.5910365000018	3.2169377999962308	ITI	999	999
373.81351050001103	0.7141391999903135	fixation_1	999	999
374.5277275000117	3.063278799992986	face	n/a	n/a
377.5910469000228	0.7141391999903135	fixation_2	999	999
378.1473094000248	1.0007995999767445	feedback win	999	999
379.1481122999976	3.2169602000212763	ITI	999	999
382.3706042999984	0.6973927000071853	fixation_1	999	999
383.06810260002385	3.00670089997584	face	1.5505392999912146	2
386.0748528999975	0.6973927000071853	fixation_2	999	999
386.62098080001306	1.0007765000045765	feedback loss	999	999
387.62176190002356	3.216881899978034	ITI	999	999
390.84419600002	0.6971524999826215	fixation_1	999	999
391.54142790002516	3.0663521999958903	face	n/a	n/a
394.60782020000624	0.6971524999826215	fixation_2	999	999
395.1613647000049	1.000755899993237	feedback loss	999	999
396.1621238000225	5.316589499998372	ITI	999	999
401.48434770002495	0.7827246999950148	fixation_1	999	999
402.26720650002244	3.006042399996659	face	0.7832703999883961	2
405.2732963000017	0.7827246999950148	fixation_2	999	999
405.82007510002586	1.0008224999764934	feedback loss	999	999
406.82090070002596	1.118514799978584	ITI	999	999
407.94504720001714	0.677264700003434	fixation_1	999	999
408.6224459000223	3.006437799980631	face	0.7833746999967843	2
411.6289326999977	0.677264700003434	fixation_2	999	999
412.1753706000163	1.0008876000065356	feedback loss	999	999
413.1762614000181	5.3162682999973185	ITI	999	999
418.49816909999936	0.7162608000217006	fixation_1	999	999
419.2145141000219	3.006441099976655	face	1.3005507999914698	3
422.2210040000209	0.7162608000217006	fixation_2	999	999
422.7670998000249	1.001102299982449	feedback win	999	999
423.76820520000183	1.1179688000120223	ITI	999	999
424.89187120000133	0.6777922000037506	fixation_1	999	999
425.56976569999824	3.064773400023114	face	n/a	n/a
428.63457920000656	0.6777922000037506	fixation_2	999	999
429.189374700014	1.0007524999964517	feedback loss	999	999
430.1901308000088	3.21701039999607	ITI	999	999
433.41295660001924	0.6637803000048734	fixation_1	999	999
434.07682250000653	3.0647944000083953	face	n/a	n/a
437.1416565000254	0.6637803000048734	fixation_2	999	999
437.69637340001645	1.0007967999845278	feedback loss	999	999
438.69717340002535	1.117954599991208	ITI	999	999
439.8209792000125	0.7110914000077173	fixation_1	999	999
440.5321555999981	3.0064880000136327	face	1.300445500004571	2
443.53869190000114	0.7110914000077173	fixation_2	999	999
444.08492160000606	1.000902900006622	feedback win	999	999
445.0858275000064	1.1178935999923851	ITI	999	999
446.20957130001625	0.6943517999898177	fixation_1	999	999
446.904053700011	3.063397099991562	face	n/a	n/a
449.9674926000007	0.6943517999898177	fixation_2	999	999
450.52465910001774	1.0164681999885943	feedback win	999	999
451.54113040000084	1.1177005000063218	ITI	999	999
452.66467580001336	0.7112546999996994	fixation_1	999	999
453.3760104000103	3.341287299990654	face	3.3355389999924228	2
456.71736080001574	0.7112546999996994	fixation_2	999	999
457.26237060001586	1.0008819999929983	feedback win	999	999
458.26325570000336	3.2169805000012275	ITI	999	999
461.4861213999975	0.7137481000099797	fixation_1	999	999
462.1999494000047	3.0637454999960028	face	n/a	n/a
465.2637355000188	0.7137481000099797	fixation_2	999	999
465.8194274000125	1.000739999988582	feedback win	999	999
466.82017060002545	3.2170734999817796	ITI	999	999
470.0431338000053	0.6972568000201136	fixation_1	999	999
470.74046660002205	3.065442899998743	face	n/a	n/a
473.8059475000191	0.6972568000201136	fixation_2	999	999
474.3599178000004	1.0008075000077952	feedback loss	999	999
475.36072880000575	5.316961900010938	ITI	999	999
480.68384540002444	0.7985426999803167	fixation_1	999	999
481.4825124000199	3.0672616999945603	face	n/a	n/a
484.5498126000166	0.7985426999803167	fixation_2	999	999
485.10210620000726	1.0008074000070337	feedback loss	999	999
486.1029167000088	3.216883399989456	ITI	999	999
489.3258159000252	0.6635622999747284	fixation_1	999	999
489.9894581999979	3.326200300012715	face	3.3204277000040747	2
493.3157225000032	0.6635622999747284	fixation_2	999	999
493.8593791000021	1.0007588000153191	feedback loss	999	999
494.860141800018	1.1179588999948464	ITI	999	999
495.98408920000657	0.7106251000077464	fixation_1	999	999
496.69479860001593	3.006666800007224	face	0.7836142999876756	2
499.70151480002096	0.7106251000077464	fixation_2	999	999
500.2479639000085	1.0007294999959413	feedback win	999	999
501.2486965999997	1.1180272000201512	ITI	999	999
502.3728474000236	0.6941439999791328	fixation_1	999	999
503.06707260000985	3.0631217999907676	face	n/a	n/a
506.1302420000138	0.6941439999791328	fixation_2	999	999
506.68637030001264	1.0009383999858983	feedback win	999	999
507.68731180002214	5.316975199995795	ITI	999	999
