onset	duration	trial_type	rt	resp
0.00038919999497011304	0.7546919999876991	fixation_1	999	999
0.755164899979718	3.0059854999999516	face	1.0352123000193387	2
3.7612031000026036	0.7546919999876991	fixation_2	999	999
4.308196099998895	1.002415299997665	feedback win	999	999
5.310614999994868	5.316932899993844	ITI	999	999
10.649548399989726	0.7316355000075419	fixation_1	999	999
11.381403499981388	3.006356900004903	face	1.5502358000085223	3
14.387815199996112	0.7316355000075419	fixation_2	999	999
14.933504599990556	1.0009839000122156	feedback loss	999	999
15.934491499996511	1.118153599993093	ITI	999	999
17.056657499982975	0.6625397000170778	fixation_1	999	999
17.719326999998884	3.005924800003413	face	1.03473829998984	3
20.72530259998166	0.6625397000170778	fixation_2	999	999
21.27146439999342	1.0005749999836553	feedback win	999	999
22.272043899982236	1.11819330000435	ITI	999	999
23.394585000001825	0.7126565999933518	fixation_1	999	999
24.107322700001532	3.0051363999955356	face	0.7832173999922816	2
27.112509099999443	0.7126565999933518	fixation_2	999	999
27.660072099999525	1.0011600999860093	feedback win	999	999
28.661235399980797	3.2170955000037793	ITI	999	999
31.88251919997856	0.715576400019927	fixation_1	999	999
32.598173499980476	3.064023900020402	face	n/a	n/a
35.662239400000544	0.715576400019927	fixation_2	999	999
36.21791059998213	1.0006592000136152	feedback loss	999	999
37.21857279998949	5.317000999988522	ITI	999	999
42.53976769998553	0.7004928000096697	fixation_1	999	999
43.24042769998778	3.0067111999960616	face	1.3006440000026487	2
46.24718989999383	0.7004928000096697	fixation_2	999	999
46.79328159999568	1.0008019999950193	feedback loss	999	999
47.7940866999852	3.2168873000191525	ITI	999	999
51.01529640000081	0.6485761999792885	fixation_1	999	999
51.66399359999923	3.063876500003971	face	n/a	n/a
54.72791259997757	0.6485761999792885	fixation_2	999	999
55.283531900000526	1.0009093999979086	feedback win	999	999
56.284444399992935	3.2168876999930944	ITI	999	999
59.50572699998156	0.7318428000144195	fixation_1	999	999
60.237661899998784	3.0067591999832075	face	2.3177027000056114	2
63.24447209999198	0.7318428000144195	fixation_2	999	999
63.79073769997922	1.0007833999989089	feedback loss	999	999
64.79152420000173	1.1180458999879193	ITI	999	999
65.91386619998957	0.7621448000136297	fixation_1	999	999
66.67611390000093	3.066110399988247	face	n/a	n/a
69.7422658999858	0.7621448000136297	fixation_2	999	999
70.29598629998509	1.0008032000041567	feedback win	999	999
71.29679259998375	1.1179334000044037	ITI	999	999
72.41913919997751	0.7292503000062425	fixation_1	999	999
73.14846899997792	3.0653350000211503	face	n/a	n/a
76.21384670000407	0.7292503000062425	fixation_2	999	999
76.76807299998472	1.0007836000004318	feedback win	999	999
77.76885969997966	1.1177388000069186	ITI	999	999
78.89104889999726	0.7292029999953229	fixation_1	999	999
79.62034419999691	3.0076528000063263	face	1.5506275999941863	3
82.62804640000104	0.7292029999953229	fixation_2	999	999
83.17326690000482	1.0008142999722622	feedback loss	999	999
84.17408430000069	3.2171238999872003	ITI	999	999
87.39564419997623	0.7316487000207417	fixation_1	999	999
88.12741369998548	3.0061505000048783	face	2.3180167000100482	2
91.13361540000187	0.7316487000207417	fixation_2	999	999
91.68033139998442	1.0007830999966245	feedback loss	999	999
92.68111760000465	1.117196499981219	ITI	999	999
93.80286669998895	0.7130467999959365	fixation_1	999	999
94.51602609999827	3.065304299991112	face	n/a	n/a
97.58137159998296	0.7130467999959365	fixation_2	999	999
98.13530130000436	1.000949999986915	feedback win	999	999
99.13625449998653	5.317041100002825	ITI	999	999
104.45845659999759	0.7498072999878787	fixation_1	999	999
105.20847139999387	3.0660189999907743	face	n/a	n/a
108.27453090000199	0.7498072999878787	fixation_2	999	999
108.8274610999797	1.0011045999999624	feedback win	999	999
109.82856919997721	1.1179259000055026	ITI	999	999
110.95097169998917	0.7123983000055887	fixation_1	999	999
111.66350179997971	3.0070622000203002	face	1.3002067000197712	2
114.67061449997709	0.7123983000055887	fixation_2	999	999
115.2161409999826	1.0007989000005182	feedback win	999	999
116.21694309997838	5.317060500005027	ITI	999	999
121.53862179999123	0.716823700000532	fixation_1	999	999
122.25555739999982	3.0065795999835245	face	1.0336272999993525	2
125.26218659998267	0.716823700000532	fixation_2	999	999
125.80836029999773	1.0009630999993533	feedback win	999	999
126.80932689999463	3.2168867999862414	ITI	999	999
130.03078370000003	0.731647399981739	fixation_1	999	999
130.76254889997654	3.0063189000065904	face	2.051255000027595	2
133.7689185999916	0.731647399981739	fixation_2	999	999
134.31543399998918	1.0007879000040703	feedback win	999	999
135.31622499998775	3.2166236999910325	ITI	999	999
138.53744559999905	0.6817191999871284	fixation_1	999	999
139.21924169998965	3.0068592999887187	face	1.3008106999914162	3
142.22615149998455	0.6817191999871284	fixation_2	999	999
142.7723932999943	1.0007693000079598	feedback win	999	999
143.77316640000208	3.216921799990814	ITI	999	999
146.99479060000158	0.748336599994218	fixation_1	999	999
147.7432082000014	3.065509599982761	face	n/a	n/a
150.80876129999524	0.748336599994218	fixation_2	999	999
151.3635616999818	1.0001079000066966	feedback win	999	999
152.36367309998604	11.617147800017847	ITI	999	999
163.98572689999128	0.704730199999176	fixation_1	999	999
164.6905368999869	3.006264600000577	face	1.0336415999918245	3
167.6968496000045	0.704730199999176	fixation_2	999	999
168.24317309999606	1.0008735999872442	feedback loss	999	999
169.2440497999778	5.317000900016865	ITI	999	999
174.56573309999658	0.7503397999971639	fixation_1	999	999
175.31624849999207	3.0064319999946747	face	1.0332336999999825	2
178.32273179999902	0.7503397999971639	fixation_2	999	999
178.86891619997914	1.000771100021666	feedback win	999	999
179.86969059999683	5.31679779998376	ITI	999	999
185.1913024999958	0.7332452999835368	fixation_1	999	999
185.9246426000027	3.0067276999761816	face	1.033698099985486	3
188.93142039998202	0.7332452999835368	fixation_2	999	999
189.47821619999013	1.0004365000058897	feedback loss	999	999
190.47865589999128	3.216578599996865	ITI	999	999
193.7000021999993	0.6816209999960847	fixation_1	999	999
194.381704600004	3.3395979999913834	face	3.3337648999877274	3
197.7214021999971	0.6816209999960847	fixation_2	999	999
198.2681004999904	1.0008430999878328	feedback loss	999	999
199.2689493999933	1.1177811000088695	ITI	999	999
200.3915921000007	0.7124691999924835	fixation_1	999	999
201.10484819998965	3.0064269000140484	face	1.0324856000079308	2
204.11132609998458	0.7124691999924835	fixation_2	999	999
204.65660459999344	1.0009540999890305	feedback loss	999	999
205.6575616999762	1.1180121000215877	ITI	999	999
206.78052629999002	0.745257100003073	fixation_1	999	999
207.5258635999926	3.0061472000088543	face	1.3000987000123132	2
210.5320618999831	0.745257100003073	fixation_2	999	999
211.07857270000386	1.0008331999997608	feedback win	999	999
212.07940899999812	5.316976500005694	ITI	999	999
217.40471599999	0.7298270000028424	fixation_1	999	999
218.1346230999916	3.063463900005445	face	n/a	n/a
221.19812929999898	0.7298270000028424	fixation_2	999	999
221.75399769999785	1.0008321999921463	feedback loss	999	999
222.75483309998526	5.317033600003924	ITI	999	999
228.0768565000035	0.7329694999789353	fixation_1	999	999
228.8099067999865	3.064234799996484	face	n/a	n/a
231.8741824000026	0.7329694999789353	fixation_2	999	999
232.42950759999803	1.0007749999931548	feedback win	999	999
233.4302856999857	3.216794000007212	ITI	999	999
236.6521460999793	0.7146648000052664	fixation_1	999	999
237.36689029997797	3.0069714999990538	face	1.0338735000113957	2
240.37391159997787	0.7146648000052664	fixation_2	999	999
240.91995640000096	1.0008181000011973	feedback loss	999	999
241.92077759999665	1.1176803999987897	ITI	999	999
243.04341749998275	0.7454411000071559	fixation_1	999	999
243.78893889999017	3.0623399000032805	face	n/a	n/a
246.85131999998703	0.7454411000071559	fixation_2	999	999
247.3920611999929	1.0007554999901913	feedback win	999	999
248.39281969997683	3.2169532000261825	ITI	999	999
251.61493779998273	0.7481292000156827	fixation_1	999	999
252.36317329999292	3.0067327999859117	face	2.567621099995449	3
255.36995759999263	0.7481292000156827	fixation_2	999	999
255.9154290999868	1.0010509999992792	feedback loss	999	999
256.91648329998134	1.1179322999960277	ITI	999	999
258.03953270000056	0.6618882999755442	fixation_1	999	999
258.7014998999948	3.0064298000070266	face	1.5503392999817152	3
261.70797989997664	0.6618882999755442	fixation_2	999	999
262.254094599979	1.0007946999976411	feedback loss	999	999
263.2548922999995	1.118073599995114	ITI	999	999
264.3781559999916	0.6950692000100389	fixation_1	999	999
265.07333449998987	3.0067927000054624	face	1.0339188000070862	3
268.08017659999314	0.6950692000100389	fixation_2	999	999
268.6261003999971	1.000811399979284	feedback loss	999	999
269.6269149	1.1178775999869686	ITI	999	999
270.74999389998266	0.694880800001556	fixation_1	999	999
271.44497959999717	3.0639408999995794	face	n/a	n/a
274.5089643999818	0.694880800001556	fixation_2	999	999
275.064712899999	1.0007543999818154	feedback win	999	999
276.0654704000044	5.316766499978257	ITI	999	999
281.3874896999914	0.7833035000076052	fixation_1	999	999
282.17087309999624	3.0058580999902915	face	2.5680440999858547	3
285.1767816999927	0.7833035000076052	fixation_2	999	999
285.7235707999789	1.0008971000206657	feedback loss	999	999
286.72447109999484	1.1176087000058033	ITI	999	999
287.84795129997656	0.7281177000259049	fixation_1	999	999
288.5761910000001	3.006953499978408	face	2.0509021999896504	3
291.58319489998394	0.7281177000259049	fixation_2	999	999
292.12869679997675	1.0008104000007734	feedback loss	999	999
293.1295104000019	3.217133699974511	ITI	999	999
296.35245519998716	0.7137430000002496	fixation_1	999	999
297.0663500999799	3.074416300019948	face	3.0686479000141844	3
300.140828899981	0.7137430000002496	fixation_2	999	999
300.68604069997673	1.0005672000115737	feedback win	999	999
301.6866295999789	5.317001400020672	ITI	999	999
307.00888069998473	0.7160093999991659	fixation_1	999	999
307.72497039998416	3.0061713000177406	face	1.0335456000175327	3
310.73119199997745	0.7160093999991659	fixation_2	999	999
311.2782482999901	1.00061220000498	feedback loss	999	999
312.27886389999185	5.316367199993692	ITI	999	999
317.6005831999937	0.7665110999951139	fixation_1	999	999
318.3672474999912	3.0067541000025813	face	1.5507183999870904	3
321.3740521	0.7665110999951139	fixation_2	999	999
321.92006299999775	1.0008120999846142	feedback win	999	999
322.92087829997763	1.117482600006042	ITI	999	999
324.0438458999852	0.7452078000060283	fixation_1	999	999
324.7891816999763	3.0066079000243917	face	1.3005110000085551	3
327.79583999997703	0.7452078000060283	fixation_2	999	999
328.34202569999616	1.0008104000007734	feedback loss	999	999
329.34283919999143	1.1179732999880798	ITI	999	999
330.466225799988	0.6949325000168756	fixation_1	999	999
331.16123529998004	3.0644954000017606	face	n/a	n/a
334.22577170000295	0.6949325000168756	fixation_2	999	999
334.78064260000247	1.000518099986948	feedback loss	999	999
335.7811637999839	5.316321100021014	ITI	999	999
341.1028729999962	0.7335692000051495	fixation_1	999	999
341.83652469998924	3.0066975000081584	face	1.0337524999922607	2
344.84327329997905	0.7335692000051495	fixation_2	999	999
345.3893949999765	1.000644400017336	feedback loss	999	999
346.3900425999891	1.118178300006548	ITI	999	999
347.51451909999014	0.710246200003894	fixation_1	999	999
348.2248444999859	3.006603999994695	face	2.5687024999933783	3
351.23149959999137	0.710246200003894	fixation_2	999	999
351.77791390000493	1.0008387999841943	feedback loss	999	999
352.7787557999836	3.2170543000102043	ITI	999	999
356.00131339998916	0.7308426999952644	fixation_1	999	999
356.7322601999913	3.3401951999985613	face	3.334364300011657	3
360.07251899997937	0.7308426999952644	fixation_2	999	999
360.6183072999993	1.0012753999908455	feedback win	999	999
361.61958579998463	7.41671530000167	ITI	999	999
369.04196299999603	0.7675917999877129	fixation_1	999	999
369.80963529998553	3.006240799993975	face	1.3002200000046287	3
372.8159265999857	0.7675917999877129	fixation_2	999	999
373.36250419999124	1.000735799985705	feedback loss	999	999
374.3632432000013	1.117921999975806	ITI	999	999
375.48675079998793	0.6779294000007212	fixation_1	999	999
376.16481600000407	3.005807499983348	face	2.818579199985834	3
379.17067309998674	0.6779294000007212	fixation_2	999	999
379.71770899998955	1.0007512999873143	feedback win	999	999
380.71846449997975	1.1180661000253167	ITI	999	999
381.8428464999888	0.6604776000021957	fixation_1	999	999
382.50344349999796	3.0067421999992803	face	2.317997899983311	2
385.51023529999657	0.6604776000021957	fixation_2	999	999
386.05631659997744	1.0006041000015102	feedback loss	999	999
387.05692380000255	1.1181669999787118	ITI	999	999
388.18076649997965	0.6944369999982882	fixation_1	999	999
388.8753293999762	3.0068833000259474	face	2.5678195000218693	3
391.8822628999769	0.6944369999982882	fixation_2	999	999
392.42796299999463	1.0009125999931712	feedback loss	999	999
393.4288786999823	3.2170393000124022	ITI	999	999
396.65165519999573	0.7137107999878936	fixation_1	999	999
397.3654454999778	3.0070131000247784	face	1.300776300020516	2
400.3725086999766	0.7137107999878936	fixation_2	999	999
400.91839809998055	1.000747300015064	feedback loss	999	999
401.9191485999909	5.316698699985864	ITI	999	999
407.2416076999798	0.7994684000150301	fixation_1	999	999
408.0411589999858	3.0063542000134476	face	1.0335865000088234	3
411.04756459998316	0.7994684000150301	fixation_2	999	999
411.5938014999847	1.0009792000055313	feedback loss	999	999
412.5947837999847	5.316872700001113	ITI	999	999
417.9174978999945	0.7323077000037301	fixation_1	999	999
418.64996329997666	3.0663567000010516	face	n/a	n/a
421.7163615000027	0.7323077000037301	fixation_2	999	999
422.26950450000004	1.0007609000022057	feedback loss	999	999
423.27026950000436	5.316877299977932	ITI	999	999
428.59316099999705	0.7654687000031117	fixation_1	999	999
429.358748300001	3.0066209999786224	face	2.318111000000499	2
432.36541869997745	0.7654687000031117	fixation_2	999	999
432.9116290999809	1.0007493000011891	feedback win	999	999
433.9123814999766	3.2170641000266187	ITI	999	999
437.1353410999873	0.7302084999973886	fixation_1	999	999
437.86566709997714	3.0645609000057448	face	n/a	n/a
440.93026949997875	0.7302084999973886	fixation_2	999	999
441.48529569999664	1.0009254000033252	feedback win	999	999
442.486224399996	1.117577099998016	ITI	999	999
443.61003179999534	0.7109501000086311	fixation_1	999	999
444.32106339998427	3.005754200014053	face	2.819984600006137	2
447.3268685999792	0.7109501000086311	fixation_2	999	999
447.8738985999953	1.0008478999952786	feedback loss	999	999
448.8747495999851	3.216157899994869	ITI	999	999
452.09682479998446	0.7145400000154041	fixation_1	999	999
452.81146599998465	3.0655583000043407	face	n/a	n/a
455.87706609998713	0.7145400000154041	fixation_2	999	999
456.43085579999024	1.0008730000117794	feedback win	999	999
457.4317318999965	3.216957900003763	ITI	999	999
460.65464159997646	0.7136616000207141	fixation_1	999	999
461.3684494999761	3.0064243000233546	face	0.7832721000013407	2
464.37492559998645	0.7136616000207141	fixation_2	999	999
464.92125759998453	1.000829700002214	feedback win	999	999
465.92209039998124	1.118004000018118	ITI	999	999
467.04614209997817	0.7440786000224762	fixation_1	999	999
467.7903936999792	3.005865300016012	face	2.818491600017296	2
470.79631009997684	0.7440786000224762	fixation_2	999	999
471.3433146000025	1.0007585999846924	feedback win	999	999
472.3440762999817	1.1179334000044037	ITI	999	999
473.4685685999866	0.7103248999919742	fixation_1	999	999
474.1790168999869	3.065318800014211	face	n/a	n/a
477.2443781000038	0.7103248999919742	fixation_2	999	999
477.79841950000264	1.0007779999868944	feedback win	999	999
478.79920079998556	1.1181130000040866	ITI	999	999
479.92387089997646	0.7102718000242021	fixation_1	999	999
480.6342709999881	3.006106599990744	face	1.5500080999918282	2
483.64042739997967	0.7102718000242021	fixation_2	999	999
484.18705819998286	1.0007457000028808	feedback win	999	999
485.18780699998024	5.3162121000059415	ITI	999	999
490.510177499993	0.732526500010863	fixation_1	999	999
491.24278659999254	3.0067385000002105	face	1.3006548999983352	3
494.24957449999056	0.732526500010863	fixation_2	999	999
494.79581589999725	1.0010637999803293	feedback win	999	999
495.7968827000004	5.316555400000652	ITI	999	999
501.1195742999844	0.7155001999926753	fixation_1	999	999
501.8351573999971	3.065780300006736	face	n/a	n/a
504.90097960000276	0.7155001999926753	fixation_2	999	999
505.45488209999166	1.0004336000129115	feedback loss	999	999
506.4553187999991	5.316241599997738	ITI	999	999
