onset	duration	trial_type	rt	resp
0.00039469997864216566	0.5971964999334887	fixation_1	999	999
0.597721999976784	3.066692299908027	face	999	999
3.664458099985495	0.5971964999334887	fixation_2	999	999
4.211257199989632	1.0156567000085488	feedback win	999	999
5.226926299976185	5.3166719999862835	ITI	999	999
10.551727799931541	0.5871132999891415	fixation_1	999	999
11.138999399961904	3.062738799955696	face	999	999
14.201785299926996	0.5871132999891415	fixation_2	999	999
14.752482899930328	1.0159028000198305	feedback loss	999	999
15.768390099983662	1.1176835999358445	ITI	999	999
16.89117439999245	0.5925038999412209	fixation_1	999	999
17.483845499926247	3.0651023000245914	face	999	999
20.548996499972418	0.5925038999412209	fixation_2	999	999
21.09747909998987	1.0156617999309674	feedback win	999	999
22.1131453999551	1.1175960999680683	ITI	999	999
23.2358856999781	0.6092807999812067	fixation_1	999	999
23.84532439999748	3.064446699921973	face	999	999
26.90981889993418	0.6092807999812067	fixation_2	999	999
27.45896089996677	1.0156367999734357	feedback win	999	999
28.474601999972947	3.216497699962929	ITI	999	999
31.69596179993823	0.6088612000457942	fixation_1	999	999
32.304939699941315	3.0655318000353873	face	999	999
35.37052009999752	0.6088612000457942	fixation_2	999	999
35.918549999943934	1.015942299971357	feedback loss	999	999
36.93449689995032	5.316495300037786	ITI	999	999
42.256081699975766	0.5902842999203131	fixation_1	999	999
42.84648759989068	3.0643615000881255	face	999	999
45.91089659999125	0.5902842999203131	fixation_2	999	999
46.46013949997723	1.0155860999366269	feedback loss	999	999
47.47573009994812	3.2168390000006184	ITI	999	999
50.697548899916	0.5918099000118673	fixation_1	999	999
51.28947689989582	3.064077200018801	face	999	999
54.35360249993391	0.5918099000118673	fixation_2	999	999
54.902903899899684	1.015833800076507	feedback win	999	999
55.9187422998948	3.2175342000555247	ITI	999	999
59.141436499892734	0.607489800080657	fixation_1	999	999
59.74910389992874	3.0696487000677735	face	999	999
62.8188001998933	0.607489800080657	fixation_2	999	999
63.362686799955554	1.015840300009586	feedback loss	999	999
64.37853229988832	1.1182555000996217	ITI	999	999
65.50186749990098	0.6086092999903485	fixation_1	999	999
66.11060659994837	3.065480599994771	face	999	999
69.17613529996015	0.6086092999903485	fixation_2	999	999
69.72395999997389	1.0161500999238342	feedback win	999	999
70.74011499993503	1.117194200051017	ITI	999	999
71.86243169999216	0.6094088999088854	fixation_1	999	999
72.47199669992551	3.064925599959679	face	999	999
75.53697079990525	0.6094088999088854	fixation_2	999	999
76.08558029995766	1.015732100000605	feedback win	999	999
77.10132109990809	1.1179122000467032	ITI	999	999
78.22441819997039	0.6089451999869198	fixation_1	999	999
78.83348119992297	3.064773099962622	face	999	999
81.8983018998988	0.6089451999869198	fixation_2	999	999
82.4468945999397	1.015809900010936	feedback loss	999	999
83.46270759997424	3.216633699950762	ITI	999	999
86.68455999996513	0.6084145000204444	fixation_1	999	999
87.29309229995124	3.0641453999560326	face	999	999
90.35728669993114	0.6084145000204444	fixation_2	999	999
90.90671649994329	1.0159339000238106	feedback loss	999	999
91.92265469999984	1.117784799891524	ITI	999	999
93.04574389988557	0.6086235000984743	fixation_1	999	999
93.65453889989294	3.064605300081894	face	999	999
96.71919379988685	0.6086235000984743	fixation_2	999	999
97.26925639994442	1.014674299978651	feedback win	999	999
98.28393509995658	5.317353099933825	ITI	999	999
103.6067232999485	0.6055711000226438	fixation_1	999	999
104.21241509995889	3.0642629000358284	face	999	999
107.27672549989074	0.6055711000226438	fixation_2	999	999
107.82611969998106	1.0157126999692991	feedback win	999	999
108.84183739998844	1.117713199928403	ITI	999	999
109.96494769991841	0.6089389000553638	fixation_1	999	999
110.5740057999501	3.066384600009769	face	999	999
113.64044189988635	0.6089389000553638	fixation_2	999	999
114.18739559990354	1.0158928000601009	feedback win	999	999
115.203291599988	5.3168669999577105	ITI	999	999
120.52539589989465	0.5898422000464052	fixation_1	999	999
121.11535829992499	3.0632116000633687	face	999	999
124.17861339997035	0.5898422000464052	fixation_2	999	999
124.72893559990916	1.015785500057973	feedback win	999	999
125.74472569988575	3.2166123000206426	ITI	999	999
128.966708599939	0.6082693999633193	fixation_1	999	999
129.57509869989008	3.0620587000157684	face	999	999
132.63720529992133	0.6082693999633193	fixation_2	999	999
133.18865109991748	1.0157568000722677	feedback win	999	999
134.20441709994338	3.216674500028603	ITI	999	999
137.4292219999479	0.5888242999790236	fixation_1	999	999
138.01821289991494	3.06280680000782	face	999	999
141.08106909994967	0.5888242999790236	fixation_2	999	999
141.63169329997618	1.0158617999404669	feedback win	999	999
142.6475593999494	3.216991199995391	ITI	999	999
145.86990679998416	0.6078259999630973	fixation_1	999	999
146.4778560999548	3.06957109994255	face	999	999
149.54747509991284	0.6078259999630973	fixation_2	999	999
150.09156929992605	1.015671300003305	feedback win	999	999
151.10724499996286	11.61679370002821	ITI	999	999
162.72963979991619	0.6009009999688715	fixation_1	999	999
163.3307116999058	3.0633638000581414	face	999	999
166.39412409998477	0.6009009999688715	fixation_2	999	999
166.94437449995894	1.0156469999346882	feedback loss	999	999
167.96002579992637	5.317303800024092	ITI	999	999
173.28392839990556	0.6044514999957755	fixation_1	999	999
173.8885320998961	3.0618179000448436	face	999	999
176.95039869996253	0.6044514999957755	fixation_2	999	999
177.50234829995316	1.0156576000154018	feedback win	999	999
178.51801019988488	5.316679200041108	ITI	999	999
183.84047369996551	0.606152500025928	fixation_1	999	999
184.4467504998902	3.0656738000689074	face	999	999
187.5124726999784	0.606152500025928	fixation_2	999	999
188.06043209997006	1.015671500004828	feedback loss	999	999
189.07610799989197	3.2159412000328302	ITI	999	999
192.29778979998082	0.5916399999987334	fixation_1	999	999
192.88960729993414	3.064865499967709	face	999	999
195.9545212999219	0.5916399999987334	fixation_2	999	999
196.5033072999213	1.0157787000061944	feedback loss	999	999
197.519090399961	1.1182819999521598	ITI	999	999
198.6430391999893	0.6080570999765769	fixation_1	999	999
199.25121539994143	3.064487099996768	face	999	999
202.31574949994683	0.6080570999765769	fixation_2	999	999
202.8650089999428	1.0154916000319645	feedback loss	999	999
203.88050529989414	1.1177839000010863	ITI	999	999
205.0039467999013	0.6085483999922872	fixation_1	999	999
205.6126152999932	3.0629008999094367	face	999	999
208.67556319991127	0.6085483999922872	fixation_2	999	999
209.22624249989167	1.0157981000375003	feedback win	999	999
210.2420448999619	5.317272000014782	ITI	999	999
215.5650584999239	0.5886707999743521	fixation_1	999	999
216.1539097999921	3.0650513999862596	face	999	999
219.21901009988505	0.5886707999743521	fixation_2	999	999
219.76755109999795	1.0158196999691427	feedback loss	999	999
220.7833753998857	5.316812000004575	ITI	999	999
226.10597549995873	0.6057431999361143	fixation_1	999	999
226.71183689997997	3.0645525999134406	face	999	999
229.77643859991804	0.6057431999361143	fixation_2	999	999
230.32550369994715	1.0158558000111952	feedback win	999	999
231.34136369999032	3.217417999985628	ITI	999	999
234.56452519993763	0.6069841999560595	fixation_1	999	999
235.17165409994777	3.063864800031297	face	999	999
238.2355666999938	0.6069841999560595	fixation_2	999	999
238.78519389999565	1.0158824999816716	feedback loss	999	999
239.80108049989212	1.1182550000958145	ITI	999	999
240.92507479991764	0.6077227999921888	fixation_1	999	999
241.53294339997228	3.0649921000003815	face	999	999
244.59798409999348	0.6077227999921888	fixation_2	999	999
245.1467621999327	1.015800700057298	feedback win	999	999
246.16256769991014	3.216807399992831	ITI	999	999
249.3854149999097	0.6072982000187039	fixation_1	999	999
249.99283339991234	3.0637365999864414	face	999	999
253.05661959992722	0.6072982000187039	fixation_2	999	999
253.60642669990193	1.015781700029038	feedback loss	999	999
254.62221289996523	1.1176201000344008	ITI	999	999
255.74573289998807	0.591531699988991	fixation_1	999	999
256.337395099923	3.062899800017476	face	999	999
259.40034259995446	0.591531699988991	fixation_2	999	999
259.95131949998904	1.0158370999852195	feedback loss	999	999
260.96716099989135	1.1175715000135824	ITI	999	999
262.09066949994303	0.5915826000273228	fixation_1	999	999
262.68236959993374	3.065058400039561	face	999	999
265.7474758999888	0.5915826000273228	fixation_2	999	999
266.2961259998847	1.015670100110583	feedback loss	999	999
267.3118003999116	1.1176286999834701	ITI	999	999
268.43540849990677	0.5916446000337601	fixation_1	999	999
269.02717129990924	3.0625048000365496	face	999	999
272.08972539997194	0.5916446000337601	fixation_2	999	999
272.64099249988794	1.0154170000459999	feedback win	999	999
273.6564139999682	5.317380300024524	ITI	999	999
278.9798692999175	0.6053300000494346	fixation_1	999	999
279.5853053999599	3.0663821999914944	face	999	999
282.65173639997374	0.6053300000494346	fixation_2	999	999
283.1987517999951	1.0158548000035807	feedback loss	999	999
284.2146111999173	1.1174579000798985	ITI	999	999
285.33800979994703	0.6083873000461608	fixation_1	999	999
285.9465136999497	3.0649183000205085	face	999	999
289.01148079999257	0.6083873000461608	fixation_2	999	999
289.5602407999104	1.0158156000543386	feedback loss	999	999
290.5760647999123	3.216896300087683	ITI	999	999
293.7990083999466	0.5905090000014752	fixation_1	999	999
294.3896847999422	3.0633878000080585	face	999	999
297.45312069996726	0.5905090000014752	fixation_2	999	999
298.0032570998883	1.0158022000687197	feedback win	999	999
299.0190636999905	5.317149599897675	ITI	999	999
304.3424332999857	0.5883851000107825	fixation_1	999	999
304.9309376999736	3.0656716999365017	face	999	999
307.99665659992024	0.5883851000107825	fixation_2	999	999
308.5446203999454	1.0157640000106767	feedback loss	999	999
309.56038889999036	5.316617199918255	ITI	999	999
314.88312329992186	0.6058997999643907	fixation_1	999	999
315.48914219997823	3.063722899998538	face	999	999
318.5529136999976	0.6058997999643907	fixation_2	999	999
319.1027706998866	1.0157237000530586	feedback win	999	999
320.1185043998994	1.1182783000404015	ITI	999	999
321.24297669995576	0.6073837999720126	fixation_1	999	999
321.8504783998942	3.065577100031078	face	999	999
324.91610339994077	0.6073837999720126	fixation_2	999	999
325.46402189997025	1.0001794999698177	feedback loss	999	999
326.4642061999766	1.116305699921213	ITI	999	999
327.58711789990775	0.5913894000696018	fixation_1	999	999
328.1786318999948	3.0612266999669373	face	999	999
331.23990639997646	0.5913894000696018	fixation_2	999	999
331.7922391999746	1.0157000999897718	feedback loss	999	999
332.8079438999994	5.316062599886209	ITI	999	999
338.13012699992396	0.6070076000178233	fixation_1	999	999
338.7372926999815	3.0631686999695376	face	999	999
341.80051069997717	0.6070076000178233	fixation_2	999	999
342.35038489999715	1.015607099980116	feedback loss	999	999
343.36599639989436	1.117628800100647	ITI	999	999
344.4899362999713	0.6079046999802813	fixation_1	999	999
345.0979932999471	3.065230799955316	face	999	999
348.1632678998867	0.6079046999802813	fixation_2	999	999
348.71175029990263	1.0156182000646368	feedback loss	999	999
349.7273729998851	3.217739700106904	ITI	999	999
352.9513513999991	0.6062391999876127	fixation_1	999	999
353.55771499988623	3.063366400077939	face	999	999
356.62112909997813	0.6062391999876127	fixation_2	999	999
357.17145239992533	1.0157687000464648	feedback win	999	999
358.1872256998904	7.416909600025974	ITI	999	999
365.6106264999835	0.6032187999226153	fixation_1	999	999
366.21396469988395	3.065565300057642	face	999	999
369.2795783999609	0.6032187999226153	fixation_2	999	999
369.82765679992735	1.0157946000108495	feedback loss	999	999
370.8434557999717	1.1181839000200853	ITI	999	999
371.968062199885	0.5906078000552952	fixation_1	999	999
372.5587903999258	3.0660716000711545	face	999	999
375.624909899896	0.5906078000552952	fixation_2	999	999
376.1723944999976	1.015844599925913	feedback win	999	999
377.188243499957	1.1177638999652117	ITI	999	999
378.3125092999544	0.5910097999731079	fixation_1	999	999
378.90368789993227	3.065205099992454	face	999	999
381.9689408999402	0.5910097999731079	fixation_2	999	999
382.51730499998666	1.0156263000098988	feedback loss	999	999
383.5329389999388	1.1177267000311986	ITI	999	999
384.6570604998851	0.5911592000629753	fixation_1	999	999
385.2483823999064	3.0637847000034526	face	999	999
388.3122150999261	0.5911592000629753	fixation_2	999	999
388.8619878999889	1.0158516999799758	feedback loss	999	999
389.87784399988595	3.2168168000644073	ITI	999	999
393.101107699913	0.6068270000396296	fixation_1	999	999
393.7080508999061	3.0652235000161454	face	999	999
396.77332299994305	0.6068270000396296	fixation_2	999	999
397.3217605999671	1.0156090999953449	feedback loss	999	999
398.337374499999	5.316880499944091	ITI	999	999
403.66106449998915	0.6214706999016926	fixation_1	999	999
404.28268959990237	3.0646374000934884	face	999	999
407.3473774999147	0.6214706999016926	fixation_2	999	999
407.8962499999907	1.015858499915339	feedback loss	999	999
408.91211279993877	5.31710980006028	ITI	999	999
414.23598389991093	0.6045648000435904	fixation_1	999	999
414.84071649995167	3.065927700023167	face	999	999
417.9066929999972	0.6045648000435904	fixation_2	999	999
418.4543570999522	1.0157516000326723	feedback loss	999	999
419.47011329990346	5.317339200060815	ITI	999	999
424.7941182999639	0.6044721000362188	fixation_1	999	999
425.39871079998557	3.065288099925965	face	999	999
428.4640472999308	0.6044721000362188	fixation_2	999	999
429.01245029992424	1.0156495000701398	feedback win	999	999
430.02810419991147	3.216212800005451	ITI	999	999
433.25096569990274	0.6074175999965519	fixation_1	999	999
433.8585560999345	3.0663204999873415	face	999	999
436.9249239999335	0.6074175999965519	fixation_2	999	999
437.4721108999802	1.015735499910079	feedback win	999	999
438.4878509999253	1.117583499988541	ITI	999	999
439.6119960999349	0.6077663999749348	fixation_1	999	999
440.21991639991757	3.067253199988045	face	999	999
443.2872189999325	0.6077663999749348	fixation_2	999	999
443.8334449999966	1.015830099931918	feedback loss	999	999
444.8492799999658	3.216334700002335	ITI	999	999
448.0722580999136	0.6070936999749392	fixation_1	999	999
448.6794729999965	3.0623894999735057	face	999	999
451.74190999998245	0.6070936999749392	fixation_2	999	999
452.29326459998265	1.015604899963364	feedback win	999	999
453.3088739999803	3.2175677999621257	ITI	999	999
456.5334628999699	0.6057236000197008	fixation_1	999	999
457.13935919990763	3.063959200051613	face	999	999
460.20336619997397	0.6057236000197008	fixation_2	999	999
460.75296049995814	1.0157238999381661	feedback win	999	999
461.76868739991914	1.117719699977897	ITI	999	999
462.89310139999725	0.6077718999003991	fixation_1	999	999
463.50104099989403	3.064141600043513	face	999	999
466.5652307999553	0.6077718999003991	fixation_2	999	999
467.114477599971	1.0156932999379933	feedback win	999	999
468.1301752999425	1.1185557999415323	ITI	999	999
469.2554701999761	0.6068990000057966	fixation_1	999	999
469.86254349991214	3.065835800021887	face	999	999
472.9284261999419	0.6068990000057966	fixation_2	999	999
473.4758636999177	1.0158789000706747	feedback win	999	999
474.4917522999458	1.1175096000079066	ITI	999	999
475.6160849999869	0.6074243999319151	fixation_1	999	999
476.22362809989136	3.063818100024946	face	999	999
479.28749549994245	0.6074243999319151	fixation_2	999	999
479.8371420999756	1.0158930999459699	feedback win	999	999
480.85303969995584	5.31663929997012	ITI	999	999
486.17673759988975	0.6047575999982655	fixation_1	999	999
486.7816494998988	3.0640507000498474	face	999	999
489.84574849996716	0.6047575999982655	fixation_2	999	999
490.3954470999306	1.0156600000336766	feedback win	999	999
491.41111159999855	5.317247999948449	ITI	999	999
496.7354326999048	0.5874835000140592	fixation_1	999	999
497.323034199886	3.0635371000971645	face	999	999
500.3866211998975	0.5874835000140592	fixation_2	999	999
500.9366644999245	1.0158164000604302	feedback loss	999	999
501.95248549990356	5.316736500011757	ITI	999	999
