onset	duration	trial_type	rt	resp
0.0006131050176918507	0.6142775295302272	fixation_1	999	999
0.6149799888953567	3.0145131717436016	face	1.0365435970015824	2
3.6295378380455077	0.6142775295302272	fixation_2	999	999
4.184492698870599	1.0009605614468455	feedback win	999	999
5.185456882696599	5.317444121465087	ITI	999	999
10.51345601072535	0.5933347539976239	fixation_1	999	999
11.106905778869987	3.0185730680823326	face	0.7830193745903671	2
14.125524731818587	0.5933347539976239	fixation_2	999	999
14.676471316255629	1.0008902251720428	feedback loss	999	999
15.677364862058312	1.118136378005147	ITI	999	999
16.800598373636603	0.5780599559657276	fixation_1	999	999
17.37874587252736	3.008747690357268	face	0.5247859265655279	3
20.387542164418846	0.5780599559657276	fixation_2	999	999
20.931629579514265	1.0007546837441623	feedback win	999	999
21.932387583889067	1.1186308469623327	ITI	999	999
23.0559208560735	0.5942415823228657	fixation_1	999	999
23.65063758706674	3.020848590414971	face	0.5258110887371004	2
26.671533269807696	0.5942415823228657	fixation_2	999	999
27.220263197552413	1.0005527301691473	feedback win	999	999
28.2208192483522	3.21665792260319	ITI	999	999
31.442392576951534	0.5984294731169939	fixation_1	999	999
32.04091593250632	3.0205681500956416	face	0.7800715803168714	3
35.061530269216746	0.5984294731169939	fixation_2	999	999
35.61045913165435	1.0008959602564573	feedback loss	999	999
36.61135841254145	5.317128966096789	ITI	999	999
41.933673564810306	0.5991177447140217	fixation_1	999	999
42.532905417494476	3.018581822514534	face	0.782124622259289	2
45.55153191741556	0.5991177447140217	fixation_2	999	999
46.10245827678591	1.0008437363430858	feedback loss	999	999
47.10330563550815	3.217174428049475	ITI	999	999
50.32554187811911	0.5809099432080984	fixation_1	999	999
50.90657196706161	3.020898701623082	face	0.7794403629377484	2
53.927521685138345	0.5809099432080984	fixation_2	999	999
54.47568288305774	1.000950297806412	feedback win	999	999
55.47663619974628	3.2178445868194103	ITI	999	999
58.69954924238846	0.5969777638092637	fixation_1	999	999
59.29667341476306	3.0198164847679436	face	0.7816319642588496	3
62.31653699185699	0.5969777638092637	fixation_2	999	999
62.86663501011208	1.0006888755597174	feedback loss	999	999
63.867327206302434	1.1171531761065125	ITI	999	999
64.98963064560667	0.6122764102183282	fixation_1	999	999
65.60199731588364	3.0204806067049503	face	0.780006677377969	2
68.62253467459232	0.6122764102183282	fixation_2	999	999
69.1714683668688	1.000775814987719	feedback win	999	999
70.17225655866787	1.117453841958195	ITI	999	999
71.29486700380221	0.5954623585566878	fixation_1	999	999
71.89043984794989	3.020782782230526	face	0.7802693075500429	3
74.91127274092287	0.5954623585566878	fixation_2	999	999
75.45988795673475	1.0011730804108083	feedback win	999	999
76.46106405602768	1.117397693451494	ITI	999	999
77.58414149889722	0.5948392916470766	fixation_1	999	999
78.17907678661868	3.018377454020083	face	0.7823069533333182	3
81.19750465359539	0.5948392916470766	fixation_2	999	999
81.74835071433336	1.0009554293937981	feedback loss	999	999
82.7493094643578	3.217143334913999	ITI	999	999
85.97164291050285	0.5973155596293509	fixation_1	999	999
86.56905869208276	3.019395975396037	face	0.7810414996929467	2
89.58850236330181	0.5973155596293509	fixation_2	999	999
90.13865320943296	1.0009436565451324	feedback loss	999	999
91.13960018660873	1.1178668052889407	ITI	999	999
92.26263838633895	0.595160183031112	fixation_1	999	999
92.85792173398659	3.0202188822440803	face	0.7800570903345942	3
95.87818801077083	0.595160183031112	fixation_2	999	999
96.42727143224329	1.0007833614945412	feedback win	999	999
97.42805781261995	5.3173958216793835	ITI	999	999
102.75106244394556	0.5985121862031519	fixation_1	999	999
103.34967273892835	3.019775732420385	face	0.7819006317295134	2
106.36949526146054	0.5985121862031519	fixation_2	999	999
106.91949879331514	1.0005859364755452	feedback win	999	999
107.92008805042133	1.1174387484788895	ITI	999	999
109.04281562240794	0.59545783046633	fixation_1	999	999
109.63842982333153	3.019996401388198	face	0.7809340325184166	3
112.65847392100841	0.59545783046633	fixation_2	999	999
113.20779944490641	1.0007429108954966	feedback win	999	999
114.20855473261327	5.315883737523109	ITI	999	999
119.52984562795609	0.6001021540723741	fixation_1	999	999
120.13006762601435	3.019537251908332	face	0.7810928178951144	3
123.14965015882626	0.6001021540723741	fixation_2	999	999
123.69972825376317	1.0006740833632648	feedback win	999	999
124.70040565775707	3.2180492570623755	ITI	999	999
127.92372985230759	0.6133655696175992	fixation_1	999	999
128.5371989645064	3.020224316045642	face	0.5262980107218027	3
131.55747339129448	0.6133655696175992	fixation_2	999	999
132.10660571651533	1.0006988369859755	feedback win	999	999
133.10730787413195	3.217136391904205	ITI	999	999
136.3298471979797	0.5807719868607819	fixation_1	999	999
136.9107260480523	3.020713351201266	face	0.7795946202240884	2
139.93149132141843	0.5807719868607819	fixation_2	999	999
140.48035618662834	1.0007184590213	feedback win	999	999
141.48108762595803	3.216388047672808	ITI	999	999
144.70292026363313	0.5980156045407057	fixation_1	999	999
145.30104182567447	3.0193748441524804	face	0.781249491032213	2
148.32046255469322	0.5980156045407057	fixation_2	999	999
148.87069279374555	1.0005143922753632	feedback win	999	999
149.87121050665155	11.617184269241989	ITI	999	999
161.49400781141594	0.6040295278653502	fixation_1	999	999
162.09814933454618	3.0240898062475026	face	0.526984772644937	2
165.1222880440764	0.6040295278653502	fixation_2	999	999
165.6676889108494	1.0006786119192839	feedback loss	999	999
166.66837054118514	5.317048063967377	ITI	999	999
171.99098515231162	0.5990848401561379	fixation_1	999	999
172.59020492993295	3.020220693666488	face	0.7818888584151864	3
175.61047482909635	0.5990848401561379	fixation_2	999	999
176.15968020725995	1.0007987571880221	feedback win	999	999
177.16048228507861	5.316716606728733	ITI	999	999
182.48272317647934	0.5994863323867321	fixation_1	999	999
183.08232784317806	3.0240976549685	face	0.526537396479398	2
186.10647198650986	0.5994863323867321	fixation_2	999	999
186.65157309314236	1.0007263072766364	feedback loss	999	999
187.65231177723035	3.217098959721625	ITI	999	999
190.87490483466536	0.5974818919785321	fixation_1	999	999
191.47250355174765	3.021238007117063	face	0.7806083112955093	3
194.49380012229085	0.5974818919785321	fixation_2	999	999
195.04181400639936	1.0009502973407507	feedback loss	999	999
196.04276762437075	1.117561309132725	ITI	999	999
197.16632474493235	0.5945926606655121	fixation_1	999	999
197.7610417776741	3.020349895581603	face	0.5255303462035954	2
200.781461707782	0.5945926606655121	fixation_2	999	999
201.33037879690528	1.0008428310975432	feedback loss	999	999
202.33123400481418	1.1181786400265992	ITI	999	999
203.45517812669277	0.6109086209908128	fixation_1	999	999
204.06620478024706	3.020197751466185	face	0.7813560520298779	3
207.0864508310333	0.6109086209908128	fixation_2	999	999
207.63567402027547	1.0010840278118849	feedback win	999	999
208.63676106650382	5.316429826896638	ITI	999	999
213.95885041775182	0.5990419741719961	fixation_1	999	999
214.5580176692456	3.0203613666817546	face	0.7813780889846385	3
217.5784312603064	0.5990419741719961	fixation_2	999	999
218.12770606949925	1.0007109120488167	feedback loss	999	999
219.1284203021787	5.31757785147056	ITI	999	999
224.45169329922646	0.5975751709192991	fixation_1	999	999
225.04939495492727	3.0100185773335397	face	0.5252094552852213	2
228.059461530298	0.5975751709192991	fixation_2	999	999
228.60302670439705	1.0005910685285926	feedback win	999	999
229.6036207913421	3.216772936284542	ITI	999	999
232.82618969865143	0.5974145741201937	fixation_1	999	999
233.4237386067398	3.0676589044742286	face	999	999
236.49144249036908	0.5974145741201937	fixation_2	999	999
237.0431700218469	1.000871207099408	feedback loss	999	999
238.04404454957694	1.1181837720796466	ITI	999	999
239.16788754379377	0.5946137919090688	fixation_1	999	999
239.76263446221128	3.0143543859012425	face	1.036635366268456	2
242.7770350347273	0.5946137919090688	fixation_2	999	999
243.33195668971166	1.000641783233732	feedback win	999	999
244.33260149136186	3.2167998030781746	ITI	999	999
247.55534276831895	0.5971314171329141	fixation_1	999	999
248.15262361289933	3.0218378296121955	face	1.5461567579768598	3
251.1745064216666	0.5971314171329141	fixation_2	999	999
251.7219271240756	1.001028181053698	feedback loss	999	999
252.72295832401142	1.1174203339032829	ITI	999	999
253.84618187416345	0.577925621997565	fixation_1	999	999
254.42422824539244	3.0704056518152356	face	999	999
257.49467857414857	0.577925621997565	fixation_2	999	999
258.0441610724665	1.0002686674706638	feedback loss	999	999
259.0444327588193	1.1179440845735371	ITI	999	999
260.16820390708745	0.5949992844834924	fixation_1	999	999
260.7633541286923	3.014816554263234	face	2.053396589588374	2
263.77822200162336	0.5949992844834924	fixation_2	999	999
264.33236210560426	1.0008527929894626	feedback loss	999	999
265.3332272754051	1.1181502640247345	ITI	999	999
266.4571741139516	0.5941226440481842	fixation_1	999	999
267.05142626166344	3.067878970410675	face	999	999
270.1193474945612	0.5941226440481842	fixation_2	999	999
270.67088394006714	1.000937317032367	feedback win	999	999
271.67182427598163	5.317558531649411	ITI	999	999
276.99536412907764	0.6147197736427188	fixation_1	999	999
277.6102547631599	3.0211121262982488	face	0.5258832364343107	2
280.63141367956996	0.6147197736427188	fixation_2	999	999
281.1796029517427	1.0009077335707843	feedback loss	999	999
282.18052306212485	1.1175323291681707	ITI	999	999
283.3119937959127	0.6030762116424739	fixation_1	999	999
283.9151973980479	3.0101541187614202	face	0.5248683379031718	2
286.92540102405474	0.6030762116424739	fixation_2	999	999
287.4683612436056	1.001125082373619	feedback loss	999	999
288.46948934486136	3.2160414969548583	ITI	999	999
291.69145510857925	0.5973650673404336	fixation_1	999	999
292.2889475664124	3.019421936478466	face	1.7990467441268265	2
295.3084208215587	0.5973650673404336	fixation_2	999	999
295.8584146932699	1.0007139309309423	feedback win	999	999
296.85913224658	5.316726870369166	ITI	999	999
302.18174474453554	0.5824238387867808	fixation_1	999	999
302.7643255572766	3.0220144260674715	face	0.7791771292686462	3
305.7863864717074	0.5824238387867808	fixation_2	999	999
306.3336112583056	1.0008636601269245	feedback loss	999	999
307.3344782390632	5.316810489166528	ITI	999	999
312.6572938975878	0.6153202001005411	fixation_1	999	999
313.27275778958574	3.020883004181087	face	0.5266303732059896	3
316.2936869803816	0.6153202001005411	fixation_2	999	999
316.84236317453906	1.000781852286309	feedback win	999	999
317.8431486492045	1.1176512674428523	ITI	999	999
318.96680116141215	0.5943064847961068	fixation_1	999	999
319.56123745208606	3.0661742906086147	face	999	999
322.6274570240639	0.5943064847961068	fixation_2	999	999
323.1810311153531	1.0006879698485136	feedback loss	999	999
324.1817227075808	1.1186251109465957	ITI	999	999
325.3064770582132	0.5936366273090243	fixation_1	999	999
325.9002706599422	3.067613623570651	face	999	999
328.96793197933584	0.5936366273090243	fixation_2	999	999
329.51948472624645	1.000789097044617	feedback loss	999	999
330.5202771439217	5.316814715508372	ITI	999	999
335.843085557688	0.5986133138649166	fixation_1	999	999
336.4418540345505	3.023829591460526	face	0.5276069343090057	2
339.46573162358254	0.5986133138649166	fixation_2	999	999
340.01137006515637	1.0007287226617336	feedback loss	999	999
341.01210241019726	1.1172331725247204	ITI	999	999
342.1353972023353	0.5950198117643595	fixation_1	999	999
342.73056161170825	3.017727520316839	face	1.0339544280432165	3
345.7483365260996	0.5950198117643595	fixation_2	999	999
346.29979659756646	1.0009578447788954	feedback loss	999	999
347.300757762976	3.21673942822963	ITI	999	999
350.52354522654787	0.5972826555371284	fixation_1	999	999
351.1209667441435	3.019353410694748	face	0.7818127861246467	2
354.1403702660464	0.5972826555371284	fixation_2	999	999
354.6902729724534	1.0008147563785315	feedback win	999	999
355.6910995016806	7.416546470951289	ITI	999	999
363.1137226857245	0.6006935243494809	fixation_1	999	999
363.7145605054684	3.0192006630823016	face	0.7819139142520726	2
366.73380765737966	0.6006935243494809	fixation_2	999	999
367.2838326222263	1.0009430525824428	feedback loss	999	999
368.2847792971879	1.1175450081937015	ITI	999	999
369.40850637247786	0.5943741044029593	fixation_1	999	999
370.0030456017703	3.0213080421090126	face	0.7799293976277113	2
373.02440345287323	0.5943741044029593	fixation_2	999	999
373.5724496371113	1.000762834213674	feedback win	999	999
374.5732157919556	1.117701378185302	ITI	999	999
375.69737243279815	0.5938959368504584	fixation_1	999	999
376.291404212825	3.0194623875431716	face	0.7816063053905964	3
379.3109188247472	0.5938959368504584	fixation_2	999	999
379.86104401154444	1.001104555092752	feedback loss	999	999
380.8621518872678	1.1171839670278132	ITI	999	999
381.9857271197252	0.5942243752069771	fixation_1	999	999
382.5801172237843	3.011936379596591	face	1.2898142449557781	3
385.5921019031666	0.5942243752069771	fixation_2	999	999
386.13283490017056	1.0009164880029857	feedback loss	999	999
387.1337547088042	3.217517959885299	ITI	999	999
390.3575788056478	0.5958726047538221	fixation_1	999	999
390.9536014413461	3.020256314892322	face	0.7803487000055611	2
393.973903037142	0.5958726047538221	fixation_2	999	999
394.5230697756633	1.0007909084670246	feedback loss	999	999
395.52386430697516	5.316438882611692	ITI	999	999
400.8466645698063	0.6152072995901108	fixation_1	999	999
401.4620137498714	3.020285294391215	face	0.7813083557412028	2
404.48234462738037	0.6152072995901108	fixation_2	999	999
405.0318515775725	1.0006040488369763	feedback loss	999	999
406.03245894704014	5.316850336268544	ITI	999	999
411.35579201672226	0.5983244208618999	fixation_1	999	999
411.9543111459352	3.020880589261651	face	0.7809560694731772	3
414.9752409402281	0.5983244208618999	fixation_2	999	999
415.52411969192326	1.0003359848633409	feedback loss	999	999
416.52446775184944	5.316833129618317	ITI	999	999
421.8477395414375	0.5983600420877337	fixation_1	999	999
422.44625172764063	3.0195556664839387	face	0.7818767838180065	2
425.4658584105782	0.5983600420877337	fixation_2	999	999
426.01573515543714	1.0008026817813516	feedback win	999	999
427.01654145959765	3.216467742342502	ITI	999	999
430.2394209946506	0.5970625900663435	fixation_1	999	999
430.8366408604197	3.019641096703708	face	0.7817475819028914	3
433.8563287477009	0.5970625900663435	fixation_2	999	999
434.405846263282	1.0008790553547442	feedback win	999	999
435.40672833751887	1.1176699833013117	ITI	999	999
436.53089675167575	0.5939074079506099	fixation_1	999	999
437.1249514739029	3.015080391895026	face	1.0363519070670009	3
440.14007925987244	0.5939074079506099	fixation_2	999	999
440.69444758072495	1.0007326467894018	feedback loss	999	999
441.6951838498935	3.2169130058027804	ITI	999	999
444.9185475902632	0.6300120810046792	fixation_1	999	999
445.5487060798332	3.013558647595346	face	2.055383521132171	3
448.562314234674	0.6300120810046792	fixation_2	999	999
449.1180913988501	1.0008850931189954	feedback win	999	999
450.11898011434823	3.2172040115110576	ITI	999	999
453.34261735202745	0.5963501683436334	fixation_1	999	999
453.9391432106495	3.0194288794882596	face	0.7811770411208272	2
456.95862159738317	0.5963501683436334	fixation_2	999	999
457.5083009172231	1.0007069879211485	feedback win	999	999
458.5090112257749	1.1178450700826943	ITI	999	999
459.6333456700668	0.6106547452509403	fixation_1	999	999
460.2441504467279	3.020127716474235	face	0.5263680452480912	2
463.2643267647363	0.6106547452509403	fixation_2	999	999
463.81356927379966	1.0006970260292292	feedback win	999	999
464.81426961999387	1.1171987592242658	ITI	999	999
465.93803382571787	0.594531380571425	fixation_1	999	999
466.53272731229663	3.019630530849099	face	0.7818330121226609	2
469.5524058411829	0.594531380571425	fixation_2	999	999
470.1020969338715	1.0007930221036077	feedback win	999	999
471.10289357835427	1.1175021417438984	ITI	999	999
472.22682683262974	0.5941884526982903	fixation_1	999	999
472.8211644105613	3.023201090749353	face	0.5275936517864466	2
475.8444162160158	0.5941884526982903	fixation_2	999	999
476.3905699555762	1.0007966440171003	feedback win	999	999
477.39137867465615	5.316810790915042	ITI	999	999
482.71521074092016	0.597851989325136	fixation_1	999	999
483.3132471749559	3.0200208532623947	face	0.7819293094798923	3
486.3333142148331	0.597851989325136	fixation_2	999	999
486.882625550963	1.0008805650286376	feedback win	999	999
487.8835094361566	5.316780000459403	ITI	999	999
493.2070731376298	0.5981544661335647	fixation_1	999	999
493.8053833702579	3.0198602569289505	face	0.7815084983594716	2
496.82529192697257	0.5981544661335647	fixation_2	999	999
497.3743898384273	1.0009249402210116	feedback loss	999	999
498.3753271554597	5.316525822505355	ITI	999	999
