onset	duration	trial_type	rt	resp
0.00041980000969488174	0.6147434999875259	fixation_1	999	999
0.6153823000058765	3.0597408000030555	face	999	999
3.6751714999991236	0.6147434999875259	fixation_2	999	999
4.2156371000019135	1.0001500000071246	feedback loss	999	999
5.215796799995587	5.317099400010193	ITI	999	999
10.547423099997104	0.6016432000033092	fixation_1	999	999
11.14921430000686	3.0582602999929804	face	999	999
14.207519300005515	0.6016432000033092	fixation_2	999	999
14.750608300004387	1.0000251000019489	feedback win	999	999
15.750644200001261	5.3165646999987075	ITI	999	999
21.08057990000816	0.6042876999999862	fixation_1	999	999
21.685082700001658	3.0579718999942997	face	999	999
24.74310130000231	0.6042876999999862	fixation_2	999	999
25.285464800006594	1.0003457999991952	feedback loss	999	999
26.285820500008413	5.3158757999917725	ITI	999	999
31.613189700001385	0.6066860999999335	fixation_1	999	999
32.220107600005576	3.0563409000023967	face	999	999
35.27649440000823	0.6066860999999335	fixation_2	999	999
35.82051770000544	1.0166766999900574	feedback loss	999	999
36.83720490000269	1.1173157000011997	ITI	999	999
37.96644780000497	0.5875273999990895	fixation_1	999	999
38.55418859999918	3.05843430000823	face	999	999
41.61266749999777	0.5875273999990895	fixation_2	999	999
42.15378340000461	1.0166805000044405	feedback loss	999	999
43.17046940000728	1.1177849999949103	ITI	999	999
44.30030960000295	0.5880813999974634	fixation_1	999	999
44.888613600007375	3.057197599991923	face	999	999
47.945882100000745	0.5880813999974634	fixation_2	999	999
48.48919590000878	1.0000710999884177	feedback win	999	999
49.48927730000287	1.1167370000039227	ITI	999	999
50.618030700003146	0.6046116999932565	fixation_1	999	999
51.2228568999999	3.059716000003391	face	999	999
54.28261779999593	0.6046116999932565	fixation_2	999	999
54.82324690000678	1.016917699991609	feedback win	999	999
55.84017450000101	3.2159444999997504	ITI	999	999
59.06816510000499	0.6057016999984626	fixation_1	999	999
59.67407860000094	3.054871500004083	face	999	999
62.728995600002236	0.6057016999984626	fixation_2	999	999
63.27432920000865	1.0001312999957008	feedback loss	999	999
64.2744706000085	3.216651999988244	ITI	999	999
67.5033628000092	0.5885654999874532	fixation_1	999	999
68.09215490000497	3.056562700003269	face	999	999
71.14876399999775	0.5885654999874532	fixation_2	999	999
71.69243049999932	1.0000240000081249	feedback win	999	999
72.69246489999932	1.1180931999988388	ITI	999	999
73.82426150000538	0.601752899994608	fixation_1	999	999
74.42632189999858	3.0530824000015855	face	999	999
77.47945149999578	0.601752899994608	fixation_2	999	999
78.02663140000368	1.000150299994857	feedback win	999	999
79.02679210000497	3.216237899992848	ITI	999	999
82.25770220000413	0.586306400000467	fixation_1	999	999
82.84422359999735	3.0613301000121282	face	999	999
85.90560080000432	0.586306400000467	fixation_2	999	999
86.46109379999689	1.000165300007211	feedback loss	999	999
87.46126959999674	5.316708000013023	ITI	999	999
92.79051099999924	0.6051016999990679	fixation_1	999	999
93.39584209999884	3.061530799997854	face	999	999
96.45741950000229	0.6051016999990679	fixation_2	999	999
97.01276589999907	1.000010800009477	feedback loss	999	999
98.0127868999989	5.316115900001023	ITI	999	999
103.34135050000623	0.6056277000025148	fixation_1	999	999
103.9472007000004	3.0574934000032954	face	999	999
107.00473970000166	0.6056277000025148	fixation_2	999	999
107.5477949000051	1.016852500004461	feedback win	999	999
108.56465749999916	5.315642600005958	ITI	999	999
113.89285760000348	0.6056877999944845	fixation_1	999	999
114.49875939999765	3.060342800003127	face	999	999
117.55914779999875	0.6056877999944845	fixation_2	999	999
118.11590350000188	1.0000474999978906	feedback win	999	999
119.11596110000391	3.216840900000534	ITI	999	999
122.34572359999584	0.5875105000013718	fixation_1	999	999
122.93344960000832	3.0579448999924352	face	999	999
125.99143870000262	0.5875105000013718	fixation_2	999	999
126.53369219999877	1.0002181000018027	feedback win	999	999
127.53392040000472	1.1178619999991497	ITI	999	999
128.66529289999744	0.6023559000022942	fixation_1	999	999
129.2678697000083	3.0575122000009287	face	999	999
132.32542720000492	0.6023559000022942	fixation_2	999	999
132.8682020999986	1.0001465000095777	feedback win	999	999
133.86835900000005	1.1171696000092197	ITI	999	999
134.99848110000312	0.5866036999941571	fixation_1	999	999
135.58529899999849	3.059268900004099	face	999	999
138.64461430000665	0.5866036999941571	fixation_2	999	999
139.2011169000034	1.000864300003741	feedback loss	999	999
140.2019913999975	1.1191879000107292	ITI	999	999
141.33406210000976	0.6019038999947952	fixation_1	999	999
141.93620140000712	3.0610259999957634	face	999	999
144.99727180000627	0.6019038999947952	fixation_2	999	999
145.55340109999815	1.0170488000003388	feedback loss	999	999
146.57046000000264	7.415724599995883	ITI	999	999
154.0015337000077	0.6030564999964554	fixation_1	999	999
154.60480519999692	3.0595193000044674	face	999	999
157.66438370000105	0.6030564999964554	fixation_2	999	999
158.20478630000434	1.000404599995818	feedback loss	999	999
159.20520110000507	3.2162056999950437	ITI	999	999
162.43427820000215	0.6049160999973537	fixation_1	999	999
163.0394049000024	3.0615610999957426	face	999	999
166.10101420000137	0.6049160999973537	fixation_2	999	999
166.65639200000442	1.0166962999937823	feedback win	999	999
167.67309830000158	1.1177785000036238	ITI	999	999
168.80405069999688	0.6016846999991685	fixation_1	999	999
169.4058834000025	3.058242099999916	face	999	999
172.46417190000648	0.6016846999991685	fixation_2	999	999
173.00715820000914	1.0003952999977628	feedback loss	999	999
174.00756399999955	5.316821900007199	ITI	999	999
179.33744289999595	0.6041803000116488	fixation_1	999	999
179.94183989999874	3.059558699998888	face	999	999
183.00144560000626	0.6041803000116488	fixation_2	999	999
183.54223620000994	1.0000247999996645	feedback loss	999	999
184.54227069999615	1.1170052000088617	ITI	999	999
185.67240750000929	0.603509499997017	fixation_1	999	999
186.27613480000582	3.0590546000021277	face	999	999
189.33523520000745	0.603509499997017	fixation_2	999	999
189.87640380000812	1.000255399994785	feedback win	999	999
190.8766692000063	1.1177926999953343	ITI	999	999
192.00793340000382	0.5857044000003953	fixation_1	999	999
192.59385240000847	3.0590060999966227	face	999	999
195.6529026000062	0.5857044000003953	fixation_2	999	999
196.19401570000628	1.0000612000003457	feedback win	999	999
197.19408739999926	5.316284100001212	ITI	999	999
202.52368240000214	0.6047924000013154	fixation_1	999	999
203.12868900000467	3.063209600004484	face	999	999
206.19194420000713	0.6047924000013154	fixation_2	999	999
206.74568350000482	1.0165928999922471	feedback loss	999	999
207.76228690000426	5.316040999998222	ITI	999	999
213.09249629999977	0.5865757999999914	fixation_1	999	999
213.67921529999876	3.059308500000043	face	999	999
216.73856929999602	0.5865757999999914	fixation_2	999	999
217.28068330000679	1.0000365000014426	feedback loss	999	999
218.28073030000087	3.216461200005142	ITI	999	999
221.5106889000017	0.587140100004035	fixation_1	999	999
222.0980830000044	3.0592804000043543	face	999	999
225.15740820000065	0.587140100004035	fixation_2	999	999
225.71498260000953	1.0170037999923807	feedback loss	999	999
226.73199660000682	1.1173160999896936	ITI	999	999
227.86453049999545	0.6011024000035832	fixation_1	999	999
228.4658463000087	3.058940899994923	face	999	999
231.5248319000093	0.6011024000035832	fixation_2	999	999
232.06597940000938	1.0001492999872426	feedback loss	999	999
233.06613920000382	5.316684499994153	ITI	999	999
238.39635130000534	0.6043484999972861	fixation_1	999	999
239.00091640000755	3.060095900000306	face	999	999
242.0610602000088	0.6043484999972861	fixation_2	999	999
242.60126360000868	1.0164357999892673	feedback loss	999	999
243.61770930000057	1.1174987999984296	ITI	999	999
244.7485078000027	0.6029431000060868	fixation_1	999	999
245.3516757000034	3.059325900001568	face	999	999
248.41104770000675	0.6029431000060868	fixation_2	999	999
248.95210840000072	1.016578099995968	feedback win	999	999
249.96869609999703	1.1169815000030212	ITI	999	999
251.09933500000625	0.6030663999990793	fixation_1	999	999
251.70261580000806	3.0595644999993965	face	999	999
254.7622255000024	0.6030663999990793	fixation_2	999	999
255.30267180000374	1.000187300000107	feedback loss	999	999
256.30286910000723	1.1175225999904796	ITI	999	999
257.43408220000856	0.5856333999981871	fixation_1	999	999
258.0199292000034	3.0593302000052063	face	999	999
261.07930379999743	0.5856333999981871	fixation_2	999	999
261.62044250000326	1.0001917000045069	feedback win	999	999
262.62064429999737	3.2170004000072367	ITI	999	999
265.85327040000993	0.60107259999495	fixation_1	999	999
266.454561999999	3.0657939000084298	face	999	999
269.52040160000615	0.60107259999495	fixation_2	999	999
270.0719458000094	1.0165572999976575	feedback win	999	999
271.08851319999667	1.117656700007501	ITI	999	999
272.21982440000284	0.6021108999993885	fixation_1	999	999
272.82215700000233	3.058820799997193	face	999	999
275.88102570000046	0.6021108999993885	fixation_2	999	999
276.42212519999885	1.0007079000060912	feedback win	999	999
277.42284330000984	3.217351299987058	ITI	999	999
280.6542125999986	0.5859474000026239	fixation_1	999	999
281.24037460000545	3.0565629999910016	face	999	999
284.29698330000974	0.5859474000026239	fixation_2	999	999
284.8405667000043	1.0002763999946183	feedback win	999	999
285.84085370000685	5.317047699994873	ITI	999	999
291.1717919000075	0.6196181999985129	fixation_1	999	999
291.7916246000095	3.05762509998749	face	999	999
294.8493043000053	0.6196181999985129	fixation_2	999	999
295.3920259000006	1.0001400000037393	feedback win	999	999
296.3921757000062	5.316090399996028	ITI	999	999
301.72205229999963	0.6043667000049027	fixation_1	999	999
302.32663239999965	3.059861000001547	face	999	999
305.38653859999613	0.6043667000049027	fixation_2	999	999
305.92713650000223	1.016525900005945	feedback win	999	999
306.943672399997	1.1178414000023622	ITI	999	999
308.075393799998	0.6008522000047378	fixation_1	999	999
308.67636830000265	3.0615991999948164	face	999	999
311.7380134999985	0.6008522000047378	fixation_2	999	999
312.2945885000081	1.000271500000963	feedback loss	999	999
313.2948703000002	1.118287200006307	ITI	999	999
314.42725020000944	0.6014942999900086	fixation_1	999	999
315.0289567	3.0602915000054054	face	999	999
318.08929430000717	0.6014942999900086	fixation_2	999	999
318.6444293999957	1.0003463000030024	feedback win	999	999
319.6447816	3.2157239000080153	ITI	999	999
322.8748663000006	0.6046974000055343	fixation_1	999	999
323.47977760000504	3.056559100004961	face	999	999
326.5363822000072	0.6046974000055343	fixation_2	999	999
327.08032740000635	1.000301899999613	feedback loss	999	999
328.08063939999556	5.316670000000158	ITI	999	999
333.41200490000483	0.602435399996466	fixation_1	999	999
334.01465320000716	3.0594763999979477	face	999	999
337.07417419999547	0.602435399996466	fixation_2	999	999
337.6149122000061	1.0000461000017822	feedback win	999	999
338.614968599999	5.31740680000803	ITI	999	999
343.94698710000375	0.6025523999996949	fixation_1	999	999
344.5497556000046	3.0575054999935674	face	999	999
347.6073097000044	0.6025523999996949	fixation_2	999	999
348.1499360000016	1.0000770000042394	feedback win	999	999
349.15002300000924	11.61591339998995	ITI	999	999
360.7815189999965	0.6039645999990171	fixation_1	999	999
361.3856997999974	3.059295099999872	face	999	999
364.4450402000075	0.6039645999990171	fixation_2	999	999
364.9857034000015	1.0001505999971414	feedback loss	999	999
365.98586420000356	3.215944600000512	ITI	999	999
369.21650209999643	0.6035046000033617	fixation_1	999	999
369.82022080000024	3.0557368000008864	face	999	999
372.8760060000059	0.6035046000033617	fixation_2	999	999
373.4206372000044	1.0164496999932453	feedback win	999	999
374.4370978000079	3.2163179999915883	ITI	999	999
377.6695655000076	0.60137649999524	fixation_1	999	999
378.2711565000063	3.0582677999918815	face	999	999
381.32947019999847	0.60137649999524	fixation_2	999	999
381.87165250000544	1.0003434999962337	feedback loss	999	999
382.87200630000734	3.2163894999976037	ITI	999	999
386.10289490000287	0.6018781000020681	fixation_1	999	999
386.70489680000173	3.0593458999937866	face	999	999
389.7642893000011	0.6018781000020681	fixation_2	999	999
390.30609120000736	1.0001918999914778	feedback loss	999	999
391.30629330000374	5.316276199999265	ITI	999	999
396.6405143000011	0.6166807999979937	fixation_1	999	999
397.2574067000096	3.061034499987727	face	999	999
400.31849940000393	0.6166807999979937	fixation_2	999	999
400.8743392000033	1.0000771000050008	feedback loss	999	999
401.8744261999964	1.117004600004293	ITI	999	999
403.005837100005	0.5857620000024326	fixation_1	999	999
403.59181199999875	3.0593622000014875	face	999	999
406.6512209000066	0.5857620000024326	fixation_2	999	999
407.19220889999997	1.0000548000098206	feedback loss	999	999
408.1922736999986	5.316230000011274	ITI	999	999
413.52287090000755	0.6034204999887152	fixation_1	999	999
414.1265671000001	3.0609235000010813	face	999	999
417.1875349000038	0.6034204999887152	fixation_2	999	999
417.74344700000074	1.0170184000016889	feedback win	999	999
418.7604755000066	1.1166687999939313	ITI	999	999
419.89152030000696	0.585604499996407	fixation_1	999	999
420.4773544000054	3.061291499994695	face	999	999
423.5386909000081	0.585604499996407	fixation_2	999	999
424.09445170000254	1.000275900005363	feedback loss	999	999
425.09473810000054	3.2172833000076935	ITI	999	999
428.3270147000003	0.5847210000065388	fixation_1	999	999
428.9119602999999	3.06122509999841	face	999	999
431.9732321000047	0.5847210000065388	fixation_2	999	999
432.5289119000081	1.0003522999904817	feedback loss	999	999
433.5292751000088	1.1171695999946678	ITI	999	999
434.6608048000053	0.6017748000012944	fixation_1	999	999
435.2627943999978	3.05603130000236	face	999	999
438.3188713999989	0.6017748000012944	fixation_2	999	999
438.8632679000002	1.0001195000077132	feedback win	999	999
439.8633975999983	1.117215700011002	ITI	999	999
440.99496389999695	0.5852403000026243	fixation_1	999	999
441.5803285000002	3.0567867000063416	face	999	999
444.637161000006	0.5852403000026243	fixation_2	999	999
445.1809813	1.0000748000020394	feedback win	999	999
446.1810664000077	1.1175002999952994	ITI	999	999
447.31382330000633	0.6006953999894904	fixation_1	999	999
447.9147399000067	3.0592359000002034	face	999	999
450.97402259999944	0.6006953999894904	fixation_2	999	999
451.51522380000097	1.0167978999961633	feedback win	999	999
452.5320317000005	3.2170946999976877	ITI	999	999
455.76378570000816	0.6021523999952478	fixation_1	999	999
456.36616140000115	3.061055900005158	face	999	999
459.4272636000096	0.6021523999952478	fixation_2	999	999
459.9831051000074	1.0001129000011133	feedback win	999	999
460.9832279999973	3.217058000009274	ITI	999	999
464.2150227000093	0.6019668999942951	fixation_1	999	999
464.8172399000032	3.0610152000008384	face	999	999
467.8783032000065	0.6019668999942951	fixation_2	999	999
468.4342145999981	1.0001845000078902	feedback loss	999	999
469.4344090000086	5.316066699990188	ITI	999	999
474.7666843000043	0.618596999993315	fixation_1	999	999
475.38550030000624	3.057545099989511	face	999	999
478.4430902000022	0.618596999993315	fixation_2	999	999
478.98590060000424	1.0000793999934103	feedback loss	999	999
479.98599020000256	3.2164771999960067	ITI	999	999
483.2172028000059	0.5858890999952564	fixation_1	999	999
483.80331679999654	3.057300700005726	face	999	999
486.86066279999795	0.5858890999952564	fixation_2	999	999
487.40393210000184	1.000111500005005	feedback loss	999	999
488.4040539999987	1.1186512999993283	ITI	999	999
489.5375972000038	0.5999521000048844	fixation_1	999	999
490.13776480000524	3.0585533999983454	face	999	999
493.19639579999784	0.5999521000048844	fixation_2	999	999
493.73816290000104	1.0001221999991685	feedback win	999	999
494.7382954000059	1.1168416000000434	ITI	999	999
495.8704687999998	0.6016858000075445	fixation_1	999	999
496.4723660000018	3.0571309000079054	face	999	999
499.5295413999993	0.6016858000075445	fixation_2	999	999
500.0723827000038	1.0000598000042373	feedback win	999	999
501.07245259999763	5.316403700009687	ITI	999	999
