onset	duration	trial_type	rt	resp
0.0004115999909117818	0.591177299967967	fixation_1	999	999
0.5917465999955311	3.064064099919051	face	999	999
3.655858099926263	0.591177299967967	fixation_2	999	999
4.205151699949056	1.016014999942854	feedback win	999	999
5.221170899923891	5.31663340004161	ITI	999	999
10.546668999944814	0.6029226999962702	fixation_1	999	999
11.149705699994229	3.0607345999451354	face	999	999
14.210486999945715	0.6029226999962702	fixation_2	999	999
14.763274999917485	1.0157713000662625	feedback loss	999	999
15.779050599900074	1.1185451000928879	ITI	999	999
16.902570299920626	0.5917400000616908	fixation_1	999	999
17.494458899949677	3.0603707999689505	face	999	999
20.55487639992498	0.5917400000616908	fixation_2	999	999
21.108131099957973	1.0157914999872446	feedback win	999	999
22.12393069989048	1.1182201000628993	ITI	999	999
23.247346799937077	0.5918182999594137	fixation_1	999	999
23.839345999993384	3.0595463999779895	face	999	999
26.898937699967064	0.5918182999594137	fixation_2	999	999
27.45287699997425	1.015799899934791	feedback win	999	999
28.46868149994407	3.216676300042309	ITI	999	999
31.690634400001727	0.5915089999325573	fixation_1	999	999
32.282309599919245	3.064776699990034	face	999	999
35.34713289991487	0.5915089999325573	fixation_2	999	999
35.89595479995478	1.0158612999366596	feedback loss	999	999
36.91182029992342	5.316252900054678	ITI	999	999
42.23343079991173	0.6067187000298873	fixation_1	999	999
42.840321099967696	3.0617226000176743	face	999	999
45.902089899987914	0.6067187000298873	fixation_2	999	999
46.453782199998386	1.016105999937281	feedback loss	999	999
47.469893499976024	3.216767599922605	ITI	999	999
50.69190899992827	0.5914432000136003	fixation_1	999	999
51.28347359993495	3.064667799975723	face	999	999
54.34818649990484	0.5914432000136003	fixation_2	999	999
54.896905899979174	1.0158437999198213	feedback win	999	999
55.91275399993174	3.217003699974157	ITI	999	999
59.13522419997025	0.5911237000254914	fixation_1	999	999
59.7264770999318	3.0643530000234023	face	999	999
62.790876999963075	0.5911237000254914	fixation_2	999	999
63.3401158999186	1.0157343000173569	feedback loss	999	999
64.35585509997327	1.1179968999931589	ITI	999	999
65.47912409994751	0.5919907999923453	fixation_1	999	999
66.07123000000138	3.0624187999637797	face	999	999
69.13369739998598	0.5919907999923453	fixation_2	999	999
69.68513499991968	1.0154871999984607	feedback win	999	999
70.70062799996231	1.1177576000336558	ITI	999	999
71.82364859990776	0.5922258000355214	fixation_1	999	999
72.41602169990074	3.0610700000543147	face	999	999
75.47713859996293	0.5922258000355214	fixation_2	999	999
76.02948359993752	1.0168108000652865	feedback win	999	999
77.04629889992066	1.1167049000505358	ITI	999	999
78.16845749993809	0.592225500033237	fixation_1	999	999
78.76084429991897	3.061634400044568	face	999	999
81.82252469996456	0.592225500033237	fixation_2	999	999
82.3744338999968	1.0157485000090674	feedback loss	999	999
83.39018679992296	3.216950900037773	ITI	999	999
86.61278899991885	0.5909757000626996	fixation_1	999	999
87.20387599989772	3.063281700015068	face	999	999
90.26720369991381	0.5909757000626996	fixation_2	999	999
90.81752059992868	1.015722700045444	feedback loss	999	999
91.83324779989198	1.1177262000273913	ITI	999	999
92.95642760000192	0.592184399953112	fixation_1	999	999
93.54873109993059	3.06097570003476	face	999	999
96.60975329997018	0.592184399953112	fixation_2	999	999
97.16229579993524	1.0158739000326023	feedback win	999	999
98.17817400000058	5.3168893998954445	ITI	999	999
103.50080989999697	0.6058542999671772	fixation_1	999	999
104.10681389993988	3.0623404000652954	face	999	999
107.16920089989435	0.6058542999671772	fixation_2	999	999
107.72115279990248	1.014730800059624	feedback win	999	999
108.73588799999561	1.1180471999105066	ITI	999	999
109.8595019999193	0.5919138999888673	fixation_1	999	999
110.45153339998797	3.061693099909462	face	999	999
113.5132728999015	0.5919138999888673	fixation_2	999	999
114.06519619992469	1.0156092999968678	feedback win	999	999
115.08080999995582	5.3165134999435395	ITI	999	999
120.4029576999601	0.606284899986349	fixation_1	999	999
121.00936179992277	3.0644436000147834	face	999	999
124.0738533999538	0.606284899986349	fixation_2	999	999
124.62322929990478	1.0157628000015393	feedback win	999	999
125.63899689994287	3.2169150999980047	ITI	999	999
128.8614367999835	0.5910970999393612	fixation_1	999	999
129.45264819997828	3.064654599991627	face	999	999
132.5173483999679	0.5910970999393612	fixation_2	999	999
133.06646609993186	1.0155103000579402	feedback win	999	999
134.0819830999244	3.2172113000415266	ITI	999	999
137.30493059998844	0.5904202999081463	fixation_1	999	999
137.8954742999049	3.0651577000971884	face	999	999
140.96067939989734	0.5904202999081463	fixation_2	999	999
141.50954589992762	1.0155575000680983	feedback win	999	999
142.52510759991128	3.2162140000145882	ITI	999	999
145.7472561999457	0.5912405999843031	fixation_1	999	999
146.3386121999938	3.062523999949917	face	999	999
149.40118329995312	0.5912405999843031	fixation_2	999	999
149.95223850000184	1.0159246999537572	feedback win	999	999
150.96816779999062	11.616807300015353	ITI	999	999
162.59085929999128	0.600627199979499	fixation_1	999	999
163.1916025999235	3.0646587000228465	face	999	999
166.2563076999504	0.600627199979499	fixation_2	999	999
166.80513029999565	1.016737399972044	feedback loss	999	999
167.82187250000425	5.316218799911439	ITI	999	999
173.14384829998016	0.6055006999522448	fixation_1	999	999
173.74947179993615	3.058994199964218	face	999	999
176.80851329991128	0.6055006999522448	fixation_2	999	999
177.36317429994233	1.015718000009656	feedback win	999	999
178.37889709998854	5.316154400003143	ITI	999	999
183.70073439995758	0.6066170999547467	fixation_1	999	999
184.3075225999346	3.066817400045693	face	999	999
187.3743870999897	0.6066170999547467	fixation_2	999	999
187.92112979991361	1.0156496000709012	feedback loss	999	999
188.93678369990084	3.2167979000369087	ITI	999	999
192.15910649998114	0.5912777999183163	fixation_1	999	999
192.75050379999448	3.0627095999661833	face	999	999
195.81326069997158	0.5912777999183163	fixation_2	999	999
196.36416859994642	1.0155207000207156	feedback loss	999	999
197.37969359999988	1.1186073999851942	ITI	999	999
198.50402269989718	0.5910989000694826	fixation_1	999	999
199.0952483000001	3.0597759999800473	face	999	999
202.15506899997126	0.5910989000694826	fixation_2	999	999
202.70894289994612	1.0156640999484807	feedback loss	999	999
203.72461539995857	1.1170484999893233	ITI	999	999
204.84739059989806	0.5926047000102699	fixation_1	999	999
205.44016809994355	3.0618496000533924	face	999	999
208.5020644000033	0.5926047000102699	fixation_2	999	999
209.05372429999989	1.0157563999528065	feedback win	999	999
210.06948539998848	5.316525699920021	ITI	999	999
215.39206979994196	0.6059900999534875	fixation_1	999	999
215.9981823998969	3.063965400098823	face	999	999
219.0621950000059	0.6059900999534875	fixation_2	999	999
219.61182469991036	1.0156439000274986	feedback loss	999	999
220.62747299997136	5.317510199965909	ITI	999	999
225.95111719996203	0.6048329999903217	fixation_1	999	999
226.55610209994484	3.0609181999461725	face	999	999
229.61706729989965	0.6048329999903217	fixation_2	999	999
230.1697143999627	1.015715799992904	feedback win	999	999
231.18543709989171	3.216863000066951	ITI	999	999
234.4081981999334	0.5908405999653041	fixation_1	999	999
234.99918149993755	3.063687999965623	face	999	999
238.0629154999042	0.5908405999653041	fixation_2	999	999
238.61271809996106	1.0158425000263378	feedback loss	999	999
239.62856479990296	1.1176667000399902	ITI	999	999
240.75223649991676	0.5915890000760555	fixation_1	999	999
241.34394079993945	3.062863399973139	face	999	999
244.40684650000185	0.5915890000760555	fixation_2	999	999
244.95750459993724	1.0160192999755964	feedback win	999	999
245.97353089996614	3.2173106999835	ITI	999	999
249.19686759996694	0.5901012999238446	fixation_1	999	999
249.78708129993174	3.0648959999671206	face	999	999
252.85202289989684	0.5901012999238446	fixation_2	999	999
253.4006451999303	1.0156236999901012	feedback loss	999	999
254.4162732999539	1.117764399969019	ITI	999	999
255.54013879993	0.591534800012596	fixation_1	999	999
256.131791499909	3.06043780001346	face	999	999
259.19227489992045	0.591534800012596	fixation_2	999	999
259.74536319996696	1.0158073999918997	feedback loss	999	999
260.76117579999845	1.1176234999438748	ITI	999	999
261.8847308999393	0.5917881999630481	fixation_1	999	999
262.4766361999791	3.06444649992045	face	999	999
265.5411291999044	0.5917881999630481	fixation_2	999	999
266.0902716999408	1.0157386000500992	feedback loss	999	999
267.106014699908	1.1181686000199988	ITI	999	999
268.23036929999944	0.5909808999858797	fixation_1	999	999
268.8214684999548	3.0630828000139445	face	999	999
271.8845978999743	0.5909808999858797	fixation_2	999	999
272.43505049997475	1.015755399945192	feedback win	999	999
273.45081079995725	5.316634300048463	ITI	999	999
278.77345569990575	0.6058212000643834	fixation_1	999	999
279.3793922999175	3.0633314000442624	face	999	999
282.4427694999613	0.6058212000643834	fixation_2	999	999
282.9927698998945	1.0160236000083387	feedback loss	999	999
284.0087982999394	1.1184605000307783	ITI	999	999
285.1333467999939	0.5908034999156371	fixation_1	999	999
285.7242664999794	3.0643530000234023	face	999	999
288.7886673999019	0.5908034999156371	fixation_2	999	999
289.337720099953	1.0158649999648333	feedback loss	999	999
290.3535893999506	3.2168649999657646	ITI	999	999
293.57653500000015	0.5906315000029281	fixation_1	999	999
294.1673241999233	3.0626811999827623	face	999	999
297.2300513999071	0.5906315000029281	fixation_2	999	999
297.78086129995063	1.0158908000448719	feedback win	999	999
298.7967597999377	5.3168021000456065	ITI	999	999
304.11996299994644	0.6052028000121936	fixation_1	999	999
304.7252837999258	3.065554599976167	face	999	999
307.79088449990377	0.6052028000121936	fixation_2	999	999
308.3388970999513	1.0156809999607503	feedback loss	999	999
309.3545825999463	5.317184600047767	ITI	999	999
314.678258299944	0.604958500014618	fixation_1	999	999
315.2833308998961	3.0618505000602454	face	999	999
318.34522899996955	0.604958500014618	fixation_2	999	999
318.89668159990106	1.0159314000047743	feedback win	999	999
319.91261759994086	1.117713800049387	ITI	999	999
321.0365799999563	0.5912641000468284	fixation_1	999	999
321.6279590999475	3.0624285000376403	face	999	999
324.690428199945	0.5912641000468284	fixation_2	999	999
325.24161249992903	1.0158609000500292	feedback loss	999	999
326.25747809989844	1.1179546000203118	ITI	999	999
327.38161419995595	0.5910554999718443	fixation_1	999	999
327.9727886999026	3.0634128000820056	face	999	999
331.03624819999095	0.5910554999718443	fixation_2	999	999
331.5864285998978	1.015826900023967	feedback loss	999	999
332.6022649999941	5.317039299989119	ITI	999	999
337.92601319996174	0.6046932999743149	fixation_1	999	999
338.53085789992474	3.062411000020802	face	999	999
341.59331669996027	0.6046932999743149	fixation_2	999	999
342.14436189993285	1.0158612000523135	feedback loss	999	999
343.16022769990377	1.1183989000273868	ITI	999	999
344.2864156999858	0.6056319999042898	fixation_1	999	999
344.8921604999341	3.0675086000701413	face	999	999
347.95971379999537	0.6056319999042898	fixation_2	999	999
348.5057865999406	1.015880599967204	feedback loss	999	999
349.5216715999413	3.217390100006014	ITI	999	999
352.74535409989767	0.589831400080584	fixation_1	999	999
353.3353002999211	3.0605957000516355	face	999	999
356.39594169997144	0.589831400080584	fixation_2	999	999
356.9489441999467	1.015791599988006	feedback win	999	999
357.9647432999918	7.416490799980238	ITI	999	999
365.38777549995575	0.6036826999625191	fixation_1	999	999
365.99160189996473	3.0634257999481633	face	999	999
369.0550699000014	0.6036826999625191	fixation_2	999	999
369.60505929996725	1.0166287999600172	feedback loss	999	999
370.6216924999608	1.1163650000235066	ITI	999	999
371.7444091999205	0.5918070999905467	fixation_1	999	999
372.3363330999855	3.061781800002791	face	999	999
375.3981614999939	0.5918070999905467	fixation_2	999	999
375.94998829998076	1.0158363999798894	feedback win	999	999
376.96582939999644	1.117776499944739	ITI	999	999
378.090389699908	0.5906349000288174	fixation_1	999	999
378.68119469995145	3.0631369999609888	face	999	999
381.74437769991346	0.5906349000288174	fixation_2	999	999
382.29473359999247	1.0156384999863803	feedback loss	999	999
383.31037649989594	1.1177760000573471	ITI	999	999
384.43485459999647	0.5909537998959422	fixation_1	999	999
385.02595739997923	3.0619706999277696	face	999	999
388.0879741999088	0.5909537998959422	fixation_2	999	999
388.6395899999188	1.0157586000859737	feedback loss	999	999
389.65535359992646	3.217687700060196	ITI	999	999
392.87963159999344	0.5891169999958947	fixation_1	999	999
393.4688666999573	3.0615265000378713	face	999	999
396.53044010000303	0.5891169999958947	fixation_2	999	999
397.0826119999401	1.0158679999876767	feedback loss	999	999
398.09848769998644	5.316770799923688	ITI	999	999
403.42189989995677	0.6050370000302792	fixation_1	999	999
404.0271115999203	3.0633687999797985	face	999	999
407.09052639990114	0.6050370000302792	fixation_2	999	999
407.6406292999163	1.0158659000881016	feedback loss	999	999
408.6564995999215	5.31735030002892	ITI	999	999
413.98059880000073	0.6042711999034509	fixation_1	999	999
414.5849866999779	3.0634917999850586	face	999	999
417.64852529997006	0.6042711999034509	fixation_2	999	999
418.1986407999648	1.0158471999457106	feedback loss	999	999
419.21449229994323	5.316575399949215	ITI	999	999
424.5416062999284	0.6012735000113025	fixation_1	999	999
425.14299269998446	3.0623474000021815	face	999	999
428.2053862999892	0.6012735000113025	fixation_2	999	999
428.7566458999645	1.0157683999277651	feedback win	999	999
429.77241899992805	3.216658500023186	ITI	999	999
432.99574349995237	0.5901648999424651	fixation_1	999	999
433.5860277999891	3.0630727999377996	face	999	999
436.64914629992563	0.5901648999424651	fixation_2	999	999
437.19983399997	1.0157396999420598	feedback win	999	999
438.21557839994784	1.1176538999425247	ITI	999	999
439.3401243999833	0.5905270999064669	fixation_1	999	999
439.9307624999201	3.0623310999944806	face	999	999
442.99314079992473	0.5905270999064669	fixation_2	999	999
443.5444325999124	1.015830900054425	feedback loss	999	999
444.56027009990066	3.216764700016938	ITI	999	999
447.7837610999122	0.5899244000902399	fixation_1	999	999
448.3738322999561	3.0625953000271693	face	999	999
451.4364694999531	0.5899244000902399	fixation_2	999	999
451.9874468999915	1.0158913999330252	feedback win	999	999
453.0033427999588	3.216794600011781	ITI	999	999
456.22681929997634	0.5898862999165431	fixation_1	999	999
456.81682139995974	3.062113599968143	face	999	999
459.8789977999404	0.5898862999165431	fixation_2	999	999
460.43062679993454	1.0155725000659004	feedback win	999	999
461.44620359991677	1.11864580004476	ITI	999	999
462.57167789991945	0.5899722999893129	fixation_1	999	999
463.1617753999308	3.0623317999998108	face	999	999
466.22415259992704	0.5899722999893129	fixation_2	999	999
466.77535089990124	1.0158727000234649	feedback win	999	999
467.79122809995897	1.117445099982433	ITI	999	999
468.9152513999725	0.591567900031805	fixation_1	999	999
469.50703749991953	3.0620594000210986	face	999	999
472.56914209993556	0.591567900031805	fixation_2	999	999
473.1201257999055	1.0159484000178054	feedback win	999	999
474.1360832999926	1.1177648999728262	ITI	999	999
475.26053749991115	0.5906348000280559	fixation_1	999	999
475.8512909999117	3.064329000073485	face	999	999
478.9156668999931	0.5906348000280559	fixation_2	999	999
479.4649735999992	1.0156275999033824	feedback win	999	999
480.4806055999361	5.3169063000241295	ITI	999	999
485.80465809989255	0.6044518999988213	fixation_1	999	999
486.4092759999912	3.0625642999075353	face	999	999
489.4718862998998	0.6044518999988213	fixation_2	999	999
490.0230154999299	1.0157974000321701	feedback win	999	999
491.0388187998906	5.316568500013091	ITI	999	999
496.3623531999765	0.6048530000261962	fixation_1	999	999
496.967324999976	3.0627536999527365	face	999	999
500.0301257999381	0.6048530000261962	fixation_2	999	999
500.5810089999577	1.0155020999955013	feedback loss	999	999
501.59651509998366	5.317372599965893	ITI	999	999
