onset	duration	trial_type	rt	resp
0.0003972999984398484	0.6037592999637127	fixation_1	999	999
0.60429909999948	3.0654412999283522	face	999	999
3.6697880999417976	0.6037592999637127	fixation_2	999	999
4.21803279989399	1.01572380005382	feedback loss	999	999
5.2337608999805525	5.316792999976315	ITI	999	999
10.558854199945927	0.6031705000204965	fixation_1	999	999
11.162142099929042	3.06246960000135	face	999	999
14.224659399944358	0.6031705000204965	fixation_2	999	999
14.776014199946076	1.0157274999655783	feedback win	999	999
15.791745899943635	5.316858000005595	ITI	999	999
21.114141499972902	0.6063484000042081	fixation_1	999	999
21.720666899927892	3.0626038999762386	face	999	999
24.78331669990439	0.6063484000042081	fixation_2	999	999
25.333894499926828	1.0157618999946862	feedback loss	999	999
26.349660799955018	5.316895599942654	ITI	999	999
31.67178239999339	0.6064296999247745	fixation_1	999	999
32.27833020000253	3.0601983999367803	face	999	999
35.33857269992586	0.6064296999247745	fixation_2	999	999
35.89183229999617	1.0158702000044286	feedback loss	999	999
36.90770739992149	1.1179129000520334	ITI	999	999
38.03088919993024	0.5921029000310227	fixation_1	999	999
38.62311599997338	3.061340600019321	face	999	999
41.68450450000819	0.5921029000310227	fixation_2	999	999
42.2366734999232	1.0158595000393689	feedback loss	999	999
43.252537599997595	1.117835099925287	ITI	999	999
44.37549789994955	0.5921808000421152	fixation_1	999	999
44.96780260000378	3.060476199956611	face	999	999
48.028326399973594	0.5921808000421152	fixation_2	999	999
48.58131219993811	1.0157999000512064	feedback win	999	999
49.59711609990336	1.1177404000191018	ITI	999	999
50.72020809992682	0.5926077000331134	fixation_1	999	999
51.312947499915026	3.0640324000269175	face	999	999
54.37702909996733	0.5926077000331134	fixation_2	999	999
54.92627559998073	1.015630399924703	feedback win	999	999
55.94191159994807	3.216397500014864	ITI	999	999
59.16368579992559	0.5918534999946132	fixation_1	999	999
59.755647699930705	3.064342600060627	face	999	999
62.82003989990335	0.5918534999946132	fixation_2	999	999
63.369282600004226	1.015883699990809	feedback loss	999	999
64.38519089994952	3.216906900051981	ITI	999	999
67.60741239995696	0.5913380000274628	fixation_1	999	999
68.19887469999958	3.061400300008245	face	999	999
71.26032309990842	0.5913380000274628	fixation_2	999	999
71.81254539999645	1.0156226999824867	feedback win	999	999
72.82817239989527	1.1179704000242054	ITI	999	999
73.95150029996876	0.5918310999404639	fixation_1	999	999
74.54348959994968	3.0610860999440774	face	999	999
77.60461899999063	0.5918310999404639	fixation_2	999	999
78.15721309999935	1.0157724999589846	feedback win	999	999
79.17298989999108	3.216557399951853	ITI	999	999
82.39480009989347	0.5916785000590608	fixation_1	999	999
82.98659429990221	3.059075800003484	face	999	999
86.04571839992423	0.5916785000590608	fixation_2	999	999
86.60029029997531	1.0157506000250578	feedback loss	999	999
87.61604579992127	5.317407099995762	ITI	999	999
92.93907609989401	0.6055551000172272	fixation_1	999	999
93.54475579992868	3.0630566000472754	face	999	999
96.60785589995794	0.6055551000172272	fixation_2	999	999
97.15825969993602	1.0158841999946162	feedback loss	999	999
98.17414829996414	5.316570600029081	ITI	999	999
103.49635809997562	0.6061837000306696	fixation_1	999	999
104.10268269991502	3.0625202000373974	face	999	999
107.16525059996638	0.6061837000306696	fixation_2	999	999
107.71605009993073	1.0158021000679582	feedback win	999	999
108.73185669991653	5.317544299992733	ITI	999	999
114.05495299992617	0.6056517000542954	fixation_1	999	999
114.66071490000468	3.0622809999622405	face	999	999
117.72304339997936	0.6056517000542954	fixation_2	999	999
118.27413609996438	1.0158936999505386	feedback win	999	999
119.29003409994766	3.2167679000413045	ITI	999	999
122.51215619989671	0.5915246000513434	fixation_1	999	999
123.10379719990306	3.063319000066258	face	999	999
126.16716069995891	0.5915246000513434	fixation_2	999	999
126.71765249990858	1.015497300075367	feedback win	999	999
127.73315449990332	1.1178067000582814	ITI	999	999
128.85657869989518	0.5921005000127479	fixation_1	999	999
129.44886239990592	3.0639617000706494	face	999	999
132.5128679999616	0.5921005000127479	fixation_2	999	999
133.0621829999145	1.015733000007458	feedback win	999	999
134.07791889994405	1.1179660999914631	ITI	999	999
135.20144059997983	0.5917803000193089	fixation_1	999	999
135.79335609998088	3.0587963999714702	face	999	999
138.85220089997165	0.5917803000193089	fixation_2	999	999
139.4066721999552	1.015907899942249	feedback loss	999	999
140.42258459993172	1.1178120999829844	ITI	999	999
141.5461420000065	0.591905599925667	fixation_1	999	999
142.13816649990622	3.063206300023012	face	999	999
145.20142119994853	0.591905599925667	fixation_2	999	999
145.75174909993075	1.0156423000153154	feedback loss	999	999
146.76739579997957	7.416726699913852	ITI	999	999
154.18995099992026	0.6043455000035465	fixation_1	999	999
154.79443639994133	3.062093900050968	face	999	999
157.85658009990584	0.6043455000035465	fixation_2	999	999
158.40793509990908	1.0156948000658303	feedback loss	999	999
159.42363439989276	3.2172350001055747	ITI	999	999
162.64658049994614	0.5907396000111476	fixation_1	999	999
163.23743609990925	3.0579785000300035	face	999	999
166.29546989989467	0.5907396000111476	fixation_2	999	999
166.8510449999012	1.0157783000031486	feedback win	999	999
167.8668275999371	1.1175336999585852	ITI	999	999
168.99004129995592	0.592122899950482	fixation_1	999	999
169.58227459993213	3.0629645000444725	face	999	999
172.64528949989472	0.592122899950482	fixation_2	999	999
173.19583129999228	1.0158376999897882	feedback loss	999	999
174.2116720000049	5.317059599910863	ITI	999	999
179.53447589999996	0.6055414999136701	fixation_1	999	999
180.1401365000056	3.0624909999314696	face	999	999
183.20267229992896	0.6055414999136701	fixation_2	999	999
183.75377109996043	1.015790899982676	feedback loss	999	999
184.7695663999766	1.1170837000245228	ITI	999	999
185.89237559994217	0.5925182000501081	fixation_1	999	999
186.48500869993586	3.065323599963449	face	999	999
189.5503811999224	0.5925182000501081	fixation_2	999	999
190.09863619995303	1.0158205999759957	feedback win	999	999
191.11445979995187	1.1180781000293791	ITI	999	999
192.23833369999193	0.5912328999256715	fixation_1	999	999
192.82968450000044	3.0619466999778524	face	999	999
195.89168020000216	0.5912328999256715	fixation_2	999	999
196.44327169994358	1.0158919000532478	feedback win	999	999
197.4591677999124	5.317052000085823	ITI	999	999
202.78220479993615	0.6055028999689966	fixation_1	999	999
203.38781929994002	3.0643995000282302	face	999	999
206.45226659998298	0.6055028999689966	fixation_2	999	999
207.00138579995837	1.015667299972847	feedback loss	999	999
208.01705769996624	5.316981500014663	ITI	999	999
213.34008309990168	0.6054910999955609	fixation_1	999	999
213.94571799994446	3.062850599992089	face	999	999
217.0086165999528	0.6054910999955609	fixation_2	999	999
217.55936179996934	1.0157897999743	feedback loss	999	999
218.57515569997486	3.2166641999501735	ITI	999	999
221.79749909997918	0.5912380999652669	fixation_1	999	999
222.38887789996807	3.0625072999391705	face	999	999
225.45143299992196	0.5912380999652669	fixation_2	999	999
226.0023049999727	1.0159441999858245	feedback loss	999	999
227.01825229998212	1.11756649997551	ITI	999	999
228.14200309989974	0.591482000076212	fixation_1	999	999
228.73360049992334	3.0611711000092328	face	999	999
231.7948149999138	0.591482000076212	fixation_2	999	999
232.34722729993518	1.0157160999951884	feedback loss	999	999
233.36294769996312	5.316979199997149	ITI	999	999
238.6860298999818	0.6052964000264183	fixation_1	999	999
239.29146949993446	3.0603813000489026	face	999	999
242.35189940000419	0.6052964000264183	fixation_2	999	999
242.9051588999573	1.0158006999408826	feedback loss	999	999
243.92096389993094	1.11835110001266	ITI	999	999
245.04546559997834	0.5907212999882177	fixation_1	999	999
245.63636020000558	3.0623732999665663	face	999	999
248.69878129998688	0.5907212999882177	fixation_2	999	999
249.25013409997337	1.015658100019209	feedback win	999	999
250.2657954999013	1.118096400052309	ITI	999	999
251.38976869999897	0.5916433999082074	fixation_1	999	999
251.98161139991134	3.0620151000330225	face	999	999
255.04367369995452	0.5916433999082074	fixation_2	999	999
255.59476669994183	1.015822899993509	feedback loss	999	999
256.61059399996884	1.1171882000053301	ITI	999	999
257.73401029990055	0.5919242000672966	fixation_1	999	999
258.32605059992056	3.06246370007284	face	999	999
261.3885600999929	0.5919242000672966	fixation_2	999	999
261.9399730999721	1.0153699999209493	feedback win	999	999
262.95534649991896	3.216646100045182	ITI	999	999
266.1782486999873	0.5905784999486059	fixation_1	999	999
266.76894399989396	3.060222400003113	face	999	999
269.8292141999118	0.5905784999486059	fixation_2	999	999
270.38260899996385	1.0158649999648333	feedback win	999	999
271.39847869996447	1.1174451999831945	ITI	999	999
272.5219934999477	0.5917754999827594	fixation_1	999	999
273.11388859990984	3.0612099000718445	face	999	999
276.1751471000025	0.5917754999827594	fixation_2	999	999
276.72739879996516	1.0159800000255927	feedback win	999	999
277.74338339990936	3.2163269000593573	ITI	999	999
280.9658487999113	0.5909202999901026	fixation_1	999	999
281.5569201000035	3.061584899900481	face	999	999
284.61855339992326	0.5909202999901026	fixation_2	999	999
285.170354199945	1.0159540000604466	feedback win	999	999
286.1863133999286	5.316310600028373	ITI	999	999
291.5090030999854	0.5891100999433547	fixation_1	999	999
292.0982289999956	3.062641799915582	face	999	999
295.1609178999206	0.5891100999433547	fixation_2	999	999
295.71196469990537	1.015761399990879	feedback win	999	999
296.727730399929	5.315999099984765	ITI	999	999
302.0498542999849	0.5894248000113294	fixation_1	999	999
302.63939099991694	3.0624151000520214	face	999	999
305.7018533999799	0.5894248000113294	fixation_2	999	999
306.2530829999596	1.015878599951975	feedback win	999	999
307.26896449993365	1.1183049000101164	ITI	999	999
308.3937382999575	0.5907681999960914	fixation_1	999	999
308.9846181999892	3.06099369993899	face	999	999
312.04566009994596	0.5907681999960914	fixation_2	999	999
312.5980015998939	1.015737900044769	feedback loss	999	999
313.6137442999752	1.1176804000278935	ITI	999	999
314.7379391998984	0.5910867000930011	fixation_1	999	999
315.3291458999738	3.0631102999905124	face	999	999
318.3923046999844	0.5910867000930011	fixation_2	999	999
318.94273589993827	1.0157991000451148	feedback win	999	999
319.95854049990885	3.216850000084378	ITI	999	999
323.18170670000836	0.5902320999884978	fixation_1	999	999
323.77210539998487	3.0643764999695122	face	999	999
326.8365293999668	0.5902320999884978	fixation_2	999	999
327.3860675999895	1.0155888999579474	feedback loss	999	999
328.40166239999235	5.3167549999197945	ITI	999	999
333.72507079993375	0.6049613000359386	fixation_1	999	999
334.33014779991936	3.060238500009291	face	999	999
337.39043569995556	0.6049613000359386	fixation_2	999	999
337.9438715999713	1.015734100015834	feedback win	999	999
338.9596085998928	5.316666500060819	ITI	999	999
344.2826408999972	0.6054959999164566	fixation_1	999	999
344.88825259997975	3.062142499955371	face	999	999
347.9504432999529	0.6054959999164566	fixation_2	999	999
348.5018417999381	1.0158018000656739	feedback win	999	999
349.51764779991936	11.616591900005005	ITI	999	999
361.1405869999435	0.6003666999749839	fixation_1	999	999
361.7411198999034	3.0624991999939084	face	999	999
364.80366330000106	0.6003666999749839	fixation_2	999	999
365.3544920999557	1.015970699954778	feedback loss	999	999
366.37046699994244	3.216639499994926	ITI	999	999
369.5934019999113	0.5905519000953063	fixation_1	999	999
370.18406939995475	3.0626644999720156	face	999	999
373.2467816999415	0.5905519000953063	fixation_2	999	999
373.7976870998973	1.0157264000736177	feedback win	999	999
374.81342169991694	3.216074700001627	ITI	999	999
378.0358527000062	0.5911875999299809	fixation_1	999	999
378.62718640000094	3.0615792999742553	face	999	999
381.68881289998535	0.5911875999299809	fixation_2	999	999
382.2413837999338	1.0151667000027373	feedback loss	999	999
383.256558699999	3.216236799955368	ITI	999	999
386.4794541998999	0.5906687000533566	fixation_1	999	999
387.0702901999466	3.0636598999844864	face	999	999
390.1339978999458	0.5906687000533566	fixation_2	999	999
390.683763399953	1.0159363000420853	feedback loss	999	999
391.6997037999099	5.31676190008875	ITI	999	999
397.02503839996643	0.6036699999822304	fixation_1	999	999
397.62883339996915	3.061158400028944	face	999	999
400.69004179991316	0.6036699999822304	fixation_2	999	999
401.24180189997423	1.015782699920237	feedback loss	999	999
402.25758879992645	1.1181072000181302	ITI	999	999
403.3822139999829	0.5906852999469265	fixation_1	999	999
403.973013299983	3.064454699982889	face	999	999
407.03751699998975	0.5906852999469265	fixation_2	999	999
407.58660849998705	1.0157940000062808	feedback loss	999	999
408.6024068999104	5.317191799986176	ITI	999	999
413.92652189999353	0.6044197999872267	fixation_1	999	999
414.53105759993196	3.0611509999725968	face	999	999
417.59225619991776	0.6044197999872267	fixation_2	999	999
418.1443780999398	1.0159144999925047	feedback win	999	999
419.1602969999658	1.1178554999642074	ITI	999	999
420.28475819993764	0.590665000025183	fixation_1	999	999
420.87556600000244	3.0604211000027135	face	999	999
423.93603409989737	0.590665000025183	fixation_2	999	999
424.4893303998979	1.015715700108558	feedback loss	999	999
425.5050507999258	3.2174411000451073	ITI	999	999
428.72903269995004	0.5896562000270933	fixation_1	999	999
429.318850099924	3.0619529000250623	face	999	999
432.380852399976	0.5896562000270933	fixation_2	999	999
432.9324201999698	1.015854199999012	feedback loss	999	999
433.94827890000306	1.1173439999110997	ITI	999	999
435.0721967999125	0.5913502000039443	fixation_1	999	999
435.66370639996603	3.0613441999303177	face	999	999
438.7250998999225	0.5913502000039443	fixation_2	999	999
439.2772652999265	1.0158352999715135	feedback win	999	999
440.29310339991935	1.1182629000395536	ITI	999	999
441.41831859992817	0.5905733000254259	fixation_1	999	999
442.00909099995624	3.061873300001025	face	999	999
445.0710083999438	0.5905733000254259	fixation_2	999	999
445.6221099999966	1.015880599967204	feedback win	999	999
446.63799519999884	1.1177265999140218	ITI	999	999
447.76249319990166	0.5905787000665441	fixation_1	999	999
448.35325179994106	3.06118369998876	face	999	999
451.41448299994227	0.5905787000665441	fixation_2	999	999
451.9669867999619	1.0156016999389976	feedback win	999	999
452.9825927999336	3.2165000999812037	ITI	999	999
456.2057558998931	0.5903778000501916	fixation_1	999	999
456.79624880000483	3.0630740999476984	face	999	999
459.8593702999642	0.5903778000501916	fixation_2	999	999
460.4098174999235	1.0158660999732092	feedback win	999	999
461.42568849993404	3.216618600068614	ITI	999	999
464.6492850999348	0.5899821000639349	fixation_1	999	999
465.2393849999644	3.06279989995528	face	999	999
468.30223279993515	0.5899821000639349	fixation_2	999	999
468.8528847999405	1.0158207999775186	feedback loss	999	999
469.8687085999409	5.317544199991971	ITI	999	999
475.19315479998477	0.6039472999982536	fixation_1	999	999
475.7972153999144	3.062061500037089	face	999	999
478.8593236999586	0.6039472999982536	fixation_2	999	999
479.4110017999774	1.0158700000029057	feedback loss	999	999
480.426879299921	3.2171004000119865	ITI	999	999
483.6508865999058	0.5895094000734389	fixation_1	999	999
484.2405646999832	3.0610186000121757	face	999	999
487.30163149989676	0.5895094000734389	fixation_2	999	999
487.8540433999151	1.0156494000693783	feedback loss	999	999
488.86969749990385	1.118459100020118	ITI	999	999
489.9951182999648	0.6065148999914527	fixation_1	999	999
490.6018198999809	3.062695699976757	face	999	999
493.66456379997544	0.6065148999914527	fixation_2	999	999
494.2155691999942	1.0155681999167427	feedback win	999	999
495.23114649998024	1.1180316000245512	ITI	999	999
496.35597049992066	0.5905896000331268	fixation_1	999	999
496.9467232999159	3.0613774000667036	face	999	999
500.0081494000042	0.5905896000331268	fixation_2	999	999
500.56033089989796	1.0156998001039028	feedback win	999	999
501.57603509991895	5.316617700038478	ITI	999	999
