onset	duration	trial_type	rt	resp
0.0004385000065667555	0.6039425999915693	fixation_1	999	999
0.6046077000064543	3.0564424999902258	face	999	999
3.6610963999992236	0.6039425999915693	fixation_2	999	999
4.203276600004756	1.0017509999888716	feedback win	999	999
5.2050372999947285	5.316562400010298	ITI	999	999
10.535900000002584	0.6032562000036705	fixation_1	999	999
11.139402300002985	3.0546222999983	face	999	999
14.194070500001544	0.6032562000036705	fixation_2	999	999
14.739608599993517	1.000047400011681	feedback loss	999	999
15.739665799992508	1.1187525000132155	ITI	999	999
16.871135699999286	0.6021429999964312	fixation_1	999	999
17.47349960000429	3.0569741999934195	face	999	999
20.530517399995006	0.6021429999964312	fixation_2	999	999
21.073951400001533	1.0001481999934185	feedback win	999	999
22.07411430000502	1.1184738999872934	ITI	999	999
23.20533450000221	0.6027621999965049	fixation_1	999	999
23.80832539999392	3.05846250000468	face	999	999
26.866832900006557	0.6027621999965049	fixation_2	999	999
27.408360100002028	1.0002276000013808	feedback win	999	999
28.408597700006794	3.216384899991681	ITI	999	999
31.636738999994122	0.5888409000035608	fixation_1	999	999
32.225804699992295	3.058850600005826	face	999	999
35.28469980000227	0.5888409000035608	fixation_2	999	999
35.82625729999563	1.000154300010763	feedback loss	999	999
36.82642179999675	5.316391800006386	ITI	999	999
42.15515469999809	0.6053411000029882	fixation_1	999	999
42.76071839999349	3.0584006999997655	face	999	999
45.81916630000342	0.6053411000029882	fixation_2	999	999
46.36058969999431	1.000437000009697	feedback loss	999	999
47.36103699999512	3.2164260999998078	ITI	999	999
50.58960740000475	0.5892318999976851	fixation_1	999	999
51.17907810000179	3.0581281000049785	face	999	999
54.23724960000254	0.5892318999976851	fixation_2	999	999
54.778967499994906	1.0000290000025416	feedback win	999	999
55.779006600001594	3.2165456999937305	ITI	999	999
59.00763510000252	0.588658900000155	fixation_1	999	999
59.59653870000329	3.0585980000032578	face	999	999
62.65518319999683	0.588658900000155	fixation_2	999	999
63.1968751999957	1.0005615999980364	feedback loss	999	999
64.19744669999636	1.1177505000086967	ITI	999	999
65.32760390000476	0.5866628999938257	fixation_1	999	999
65.91449439999997	3.0543543999956455	face	999	999
68.96889299999748	0.5866628999938257	fixation_2	999	999
69.51318039999751	1.0004220999981044	feedback win	999	999
70.51360869999917	1.1171353999961866	ITI	999	999
71.64542200000142	0.6029018999979598	fixation_1	999	999
72.24854329999653	3.059116200005519	face	999	999
75.30770530000154	0.6029018999979598	fixation_2	999	999
75.84873110000626	1.0002391999878455	feedback win	999	999
76.84898070000054	1.118357900006231	ITI	999	999
77.97972730000038	0.6017628999979934	fixation_1	999	999
78.58163950000016	3.0609071999933803	face	999	999
81.64259099999617	0.6017628999979934	fixation_2	999	999
82.18299479999405	1.000845600006869	feedback loss	999	999
83.1838512999966	3.2160556000017095	ITI	999	999
86.41249030000472	0.587871499999892	fixation_1	999	999
87.00058059999719	3.059228500002064	face	999	999
90.05985890000011	0.587871499999892	fixation_2	999	999
90.5999112999998	1.0010470999986865	feedback loss	999	999
91.60096830000111	1.1178385999955935	ITI	999	999
92.73154979999526	0.5867252000025474	fixation_1	999	999
93.31849299999885	3.0549076000024797	face	999	999
96.37344589999702	0.5867252000025474	fixation_2	999	999
96.91882059999625	1.0165070000075502	feedback win	999	999
97.93533759999264	5.317021599999862	ITI	999	999
103.26525240000046	0.6043739000015194	fixation_1	999	999
103.86985089999507	3.0569149000075413	face	999	999
106.92681140000059	0.6043739000015194	fixation_2	999	999
107.4699602000037	1.0003423000016483	feedback win	999	999
108.47031249999418	1.117192800011253	ITI	999	999
109.60044850000122	0.5869069000036689	fixation_1	999	999
110.18757120000373	3.0575299999909475	face	999	999
113.24514569999883	0.5869069000036689	fixation_2	999	999
113.787722699999	1.000511699996423	feedback win	999	999
114.78824449999956	5.316078100004233	ITI	999	999
120.11726280000585	0.6048530999978539	fixation_1	999	999
120.7223484999995	3.0569374000042444	face	999	999
123.77933000000485	0.6048530999978539	fixation_2	999	999
124.32250540000678	1.0006378999969456	feedback win	999	999
125.32315290000406	3.215952799990191	ITI	999	999
128.5533327000012	0.5867309000022942	fixation_1	999	999
129.1402795000031	3.0587252999976045	face	999	999
132.19904930000484	0.5867309000022942	fixation_2	999	999
132.740392599997	1.0001642999995966	feedback win	999	999
133.74056700000074	3.2159303999942495	ITI	999	999
136.97054690000368	0.5873494999977993	fixation_1	999	999
137.55811290000565	3.0593189999926835	face	999	999
140.6174764000025	0.5873494999977993	fixation_2	999	999
141.15868140000384	1.0000153000000864	feedback win	999	999
142.1587065000058	3.216938699988532	ITI	999	999
145.390247000003	0.6030050999979721	fixation_1	999	999
145.99346470000455	3.0573155999882147	face	999	999
149.05087279999861	0.6030050999979721	fixation_2	999	999
149.5930190999934	1.0000299000093946	feedback win	999	999
150.59305890000542	11.616150899993954	ITI	999	999
162.2237618999934	0.6047487000032561	fixation_1	999	999
162.82872849999694	3.057860000000801	face	999	999
165.88663409999572	0.6047487000032561	fixation_2	999	999
166.4295060000004	1.0160558000061428	feedback loss	999	999
167.44557179999538	5.3164792000025045	ITI	999	999
172.77519679999386	0.6047127000056207	fixation_1	999	999
173.3801347999979	3.058747899995069	face	999	999
176.43892659999256	0.6047127000056207	fixation_2	999	999
176.9802966999996	1.0154420000035316	feedback win	999	999
177.99574169999687	5.317299800008186	ITI	999	999
183.32754739999655	0.6040203000011388	fixation_1	999	999
183.9317841000011	3.056519199992181	face	999	999
186.9883503000019	0.6040203000011388	fixation_2	999	999
187.5319324000011	1.0001001999917207	feedback loss	999	999
188.5320425999962	3.217086200005724	ITI	999	999
191.7623137000046	0.6036465999932261	fixation_1	999	999
192.36619580000115	3.0607726000016555	face	999	999
195.42702580000332	0.6036465999932261	fixation_2	999	999
195.98335320000479	1.0001284999889322	feedback loss	999	999
196.9834922000009	1.1177090999990469	ITI	999	999
198.11603370000375	0.6008060000021942	fixation_1	999	999
198.7170591000031	3.057992399990326	face	999	999
201.7750953000068	0.6008060000021942	fixation_2	999	999
202.31752810000035	1.0000140000047395	feedback loss	999	999
203.31755199999316	1.1180340999999316	ITI	999	999
204.4490461999958	0.602071800007252	fixation_1	999	999
205.05134920000273	3.0570590999996057	face	999	999
208.1084547000064	0.602071800007252	fixation_2	999	999
208.65170899999794	1.0001105999981519	feedback win	999	999
209.651829800001	5.316321000005701	ITI	999	999
214.98139929999888	0.604900499994983	fixation_1	999	999
215.58652100000472	3.0575347999983933	face	999	999
218.64410950000456	0.604900499994983	fixation_2	999	999
219.18669919999957	1.000180500006536	feedback loss	999	999
220.18688989999646	5.3166090000013355	ITI	999	999
225.5183088000049	0.6024241999984952	fixation_1	999	999
226.12095899999258	3.057405400002608	face	999	999
229.1784106999985	0.6024241999984952	fixation_2	999	999
229.7206739999965	1.0009454999963054	feedback win	999	999
230.7216291999939	3.217277700008708	ITI	999	999
233.95386009999493	0.601678200007882	fixation_1	999	999
234.5557559000008	3.057132100002491	face	999	999
237.61293269999442	0.601678200007882	fixation_2	999	999
238.15674249999574	1.0151494000019738	feedback loss	999	999
239.1718980000005	1.1186147999978857	ITI	999	999
240.30431769999268	0.6021704000013415	fixation_1	999	999
240.90670629999659	3.0560903000005055	face	999	999
243.9628442999965	0.6021704000013415	fixation_2	999	999
244.50704120000592	1.000062599996454	feedback win	999	999
245.50711390000652	3.216580599997542	ITI	999	999
248.73720689999755	0.5872316000022693	fixation_1	999	999
249.32467879999604	3.056345800010604	face	999	999
252.38106949999928	0.5872316000022693	fixation_2	999	999
252.9249323999975	1.0000910999951884	feedback loss	999	999
253.92503399999987	1.1168842000042787	ITI	999	999
255.055577799998	0.603471599999466	fixation_1	999	999
255.6592662000039	3.057416999989073	face	999	999
258.71672789999866	0.603471599999466	fixation_2	999	999
259.2593806999939	1.0000532000121893	feedback loss	999	999
260.25944389999495	1.1180079000041587	ITI	999	999
261.3918205999944	0.6009903000085615	fixation_1	999	999
261.99305819999427	3.059377500001574	face	999	999
265.05248149999534	0.6009903000085615	fixation_2	999	999
265.59389160000137	1.0165727999992669	feedback loss	999	999
266.610474400004	1.1177545999962604	ITI	999	999
267.7425355000014	0.6013651999965077	fixation_1	999	999
268.34412739999243	3.0569696000020485	face	999	999
271.40114509999694	0.6013651999965077	fixation_2	999	999
271.9445940000005	1.0165256000036607	feedback win	999	999
272.96113029999833	5.317416200006846	ITI	999	999
278.29239699999744	0.6030173000035575	fixation_1	999	999
278.8956343000027	3.0575826999993296	face	999	999
281.95326140000543	0.6030173000035575	fixation_2	999	999
282.49654900000314	1.0161460999952396	feedback loss	999	999
283.512705000001	1.1184032000019215	ITI	999	999
284.6450369999948	0.6013371000008192	fixation_1	999	999
285.24659500000416	3.058618299997761	face	999	999
288.3052727000031	0.6013371000008192	fixation_2	999	999
288.84602209999866	1.000273700003163	feedback loss	999	999
289.8463058000052	3.2179121999943163	ITI	999	999
293.07858529999794	0.6023225999961141	fixation_1	999	999
293.6811253000051	3.0601281999988714	face	999	999
296.7412980999943	0.6023225999961141	fixation_2	999	999
297.2815929999924	1.0000065000058385	feedback win	999	999
298.2816102999932	5.31704360000731	ITI	999	999
303.6124780999962	0.6034107000014046	fixation_1	999	999
304.2161186000012	3.058659100002842	face	999	999
307.27482380000583	0.6034107000014046	fixation_2	999	999
307.81565790000604	1.0007539999933215	feedback loss	999	999
308.81642220000504	5.315906799994991	ITI	999	999
314.1464513999963	0.6043644000019412	fixation_1	999	999
314.75104909999936	3.06079740000132	face	999	999
317.8118927000032	0.6043644000019412	fixation_2	999	999
318.3678734999994	1.0002914999931818	feedback win	999	999
319.368174999996	1.1172379000054207	ITI	999	999
320.49927850000677	0.601455399999395	fixation_1	999	999
321.1008789000043	3.053287000002456	face	999	999
324.1542308999924	0.601455399999395	fixation_2	999	999
324.70210809999844	1.0001273999951081	feedback loss	999	999
325.7022453999962	1.1171171000023605	ITI	999	999
326.8345110999944	0.6014465000043856	fixation_1	999	999
327.436182999998	3.058604400008335	face	999	999
330.4948304999998	0.6014465000043856	fixation_2	999	999
331.03660859999945	1.000128500003484	feedback loss	999	999
332.03674789999786	5.3166922999953385	ITI	999	999
337.3676102000027	0.6031987000023946	fixation_1	999	999
337.97104180000315	3.0553790999983903	face	999	999
341.0265117999952	0.6031987000023946	fixation_2	999	999
341.5714316999947	1.0000235000043176	feedback loss	999	999
342.5714653000032	1.1181278000003658	ITI	999	999
343.70386419999704	0.6011771000048611	fixation_1	999	999
344.3052568999992	3.0568356000003405	face	999	999
347.3621404000005	0.6011771000048611	fixation_2	999	999
347.90561790000356	1.0001878999901237	feedback loss	999	999
348.9058159999986	3.2160849000065355	ITI	999	999
352.13617969999905	0.5867304999992484	fixation_1	999	999
352.7231307000038	3.058548000000883	face	999	999
355.78172549999726	0.5867304999992484	fixation_2	999	999
356.3235801999981	1.000177599999006	feedback win	999	999
357.3237674999982	7.416181000007782	ITI	999	999
364.754357400001	0.6041445000009844	fixation_1	999	999
365.3587262999936	3.0579694000043673	face	999	999
368.41674060000514	0.6041445000009844	fixation_2	999	999
368.9579529000039	1.000941899997997	feedback loss	999	999
369.958904900006	1.1175150999915786	ITI	999	999
371.0905433000007	0.6020021000003908	fixation_1	999	999
371.69276390000596	3.058477699989453	face	999	999
374.7512870999926	0.6020021000003908	fixation_2	999	999
375.2930752999964	1.000121000004583	feedback win	999	999
376.2932063000044	1.1177395999984583	ITI	999	999
377.42552190000424	0.6011464999901364	fixation_1	999	999
378.0268847999978	3.0575296000024537	face	999	999
381.0844597999967	0.6011464999901364	fixation_2	999	999
381.6273779000039	1.0000165999954334	feedback loss	999	999
382.6274052999943	1.1172874000039883	ITI	999	999
383.7623464999924	0.5986460000131046	fixation_1	999	999
384.36120830000436	3.0582122999912826	face	999	999
387.41946499999904	0.5986460000131046	fixation_2	999	999
387.96159190000617	1.0000310999894282	feedback loss	999	999
388.961632999999	3.2169037999992725	ITI	999	999
392.1928482999938	0.5862449999985984	fixation_1	999	999
392.77931509999325	3.057917099999031	face	999	999
395.83727669999644	0.5862449999985984	fixation_2	999	999
396.3794767999934	1.000320900013321	feedback loss	999	999
397.3798076999956	5.316197300009662	ITI	999	999
402.7105606999976	0.6031559999973979	fixation_1	999	999
403.3139325999946	3.058363100004499	face	999	999
406.3723394999979	0.6031559999973979	fixation_2	999	999
406.91458270000294	1.016600599992671	feedback loss	999	999
407.93119390000356	5.316589099995326	ITI	999	999
413.26223700000264	0.6023935999983223	fixation_1	999	999
413.8649194000027	3.0598233999917284	face	999	999
416.9247891999985	0.6023935999983223	fixation_2	999	999
417.4659626999928	1.0000389000051655	feedback loss	999	999
418.46601160000137	5.317051399993943	ITI	999	999
423.7981557000021	0.6020652000006521	fixation_1	999	999
424.4004378999962	3.056617800000822	face	999	999
427.4570997999981	0.6020652000006521	fixation_2	999	999
428.00079570000526	1.0001779000012903	feedback win	999	999
429.00098339999386	3.2161054000025615	ITI	999	999
432.231472200001	0.5868561999959638	fixation_1	999	999
432.81854540000495	3.0566313000017544	face	999	999
435.8752236	0.5868561999959638	fixation_2	999	999
436.41890570000396	1.0001562999968883	feedback win	999	999
437.41907200000423	1.1173953999968944	ITI	999	999
438.5513617999968	0.6011102000047686	fixation_1	999	999
439.1526908999949	3.058762900007423	face	999	999
442.21149820000574	0.6011102000047686	fixation_2	999	999
442.75291229999857	1.0001312999957008	feedback loss	999	999
443.7530534999969	3.2162152000091737	ITI	999	999
446.9849242000055	0.6022697000007611	fixation_1	999	999
447.58741510000254	3.0578413999901386	face	999	999
450.6453021000052	0.6022697000007611	fixation_2	999	999
451.1875418999989	1.0001389999961248	feedback win	999	999
452.1876912000007	3.216332500000135	ITI	999	999
455.419407399997	0.6022683000046527	fixation_1	999	999
456.02189800000633	3.0575705999945058	face	999	999
459.0795161999995	0.6022683000046527	fixation_2	999	999
459.62103039999784	1.0012358999956632	feedback win	999	999
460.6222814000066	1.1171611999889137	ITI	999	999
461.75446149999334	0.6005644000106258	fixation_1	999	999
462.3551518000022	3.059782600001199	face	999	999
465.4149796999991	0.6005644000106258	fixation_2	999	999
465.95653159999347	1.0001845000078902	feedback win	999	999
466.956726000004	1.1171776999981375	ITI	999	999
468.08885289999307	0.6013160000002244	fixation_1	999	999
468.69038759999967	3.057479900002363	face	999	999
471.7479127999977	0.6013160000002244	fixation_2	999	999
472.2905713999935	1.0002588000061223	feedback win	999	999
473.2908405000053	1.1177309999911813	ITI	999	999
474.42365129999234	0.6008612000005087	fixation_1	999	999
475.0247425999987	3.055364700005157	face	999	999
478.0801538999949	0.6008612000005087	fixation_2	999	999
478.6250280999957	1.0166364000033354	feedback win	999	999
479.64167490000546	5.3167572999955155	ITI	999	999
484.9736899999989	0.6022701000038069	fixation_1	999	999
485.57617369999934	3.059945200002403	face	999	999
488.63616439999896	0.6022701000038069	fixation_2	999	999
489.1766320000024	1.0000096000003396	feedback win	999	999
490.17665199999465	5.316708700003801	ITI	999	999
495.5086270000029	0.6022185999900103	fixation_1	999	999
496.1110714999959	3.05422649999673	face	999	999
499.16534249999677	0.6022185999900103	fixation_2	999	999
499.711475300006	1.0170975999935763	feedback loss	999	999
500.728583300006	5.316306799999438	ITI	999	999
