onset	duration	trial_type	rt	resp
0.00039579998701810837	0.6126138999825343	fixation_1	999	999
0.6131340999854729	3.0663250000216067	face	999	999
3.679505300009623	0.6126138999825343	fixation_2	999	999
4.226503300014883	1.0160094999009743	feedback loss	999	999
5.242515799938701	5.316703899996355	ITI	999	999
10.567416499950923	0.6035436000674963	fixation_1	999	999
11.171074299956672	3.0622842999873683	face	999	999
14.233405499951914	0.6035436000674963	fixation_2	999	999
14.78466689994093	1.0158170000649989	feedback win	999	999
15.800486799911596	5.316073500085622	ITI	999	999
21.12209899991285	0.6068743000505492	fixation_1	999	999
21.729089599917643	3.0684001001063734	face	999	999
24.797536599915475	0.6068743000505492	fixation_2	999	999
25.342626499943435	1.0158720000181347	feedback loss	999	999
26.35850269999355	5.317315899999812	ITI	999	999
31.68097400001716	0.6062183999456465	fixation_1	999	999
32.28736459999345	3.0634074999252334	face	999	999
35.35083130002022	0.6062183999456465	fixation_2	999	999
35.90091999992728	1.0156524000922218	feedback loss	999	999
36.91657569992822	1.1184381000930443	ITI	999	999
38.04046879999805	0.5912825999548659	fixation_1	999	999
38.63186449999921	3.0652965999906883	face	999	999
41.69722149998415	0.5912825999548659	fixation_2	999	999
42.24547500000335	1.0156990999821573	feedback loss	999	999
43.261179200024344	1.1177414999110624	ITI	999	999
44.38398459996097	0.5924422000534832	fixation_1	999	999
44.97653929993976	3.0635740000288934	face	999	999
48.040159999975	0.5924422000534832	fixation_2	999	999
48.59024859999772	1.0158429999137297	feedback win	999	999
49.606094699935056	1.1177441000472754	ITI	999	999
50.72910819994286	0.6095888999989256	fixation_1	999	999
51.33886379993055	3.0642361000645906	face	999	999
54.40314700000454	0.6095888999989256	fixation_2	999	999
54.9515980000142	1.0158477999502793	feedback win	999	999
55.967448799987324	3.216617399943061	ITI	999	999
59.18964499991853	0.6079499000916258	fixation_1	999	999
59.79774539999198	3.0632521000225097	face	999	999
62.861044300021604	0.6079499000916258	fixation_2	999	999
63.411346199922264	1.015722900046967	feedback loss	999	999
64.42707370000426	3.2171954999212176	ITI	999	999
67.64951549994294	0.5912342000519857	fixation_1	999	999
68.24089629994705	3.0666382999625057	face	999	999
71.30758439993951	0.5912342000519857	fixation_2	999	999
71.85446529998444	1.0158263000193983	feedback win	999	999
72.87029459991027	1.1170183001086116	ITI	999	999
73.99283220001962	0.6094576999312267	fixation_1	999	999
74.60240630002227	3.065235499991104	face	999	999
77.66768459999003	0.6094576999312267	fixation_2	999	999
78.21595340000931	1.015754499938339	feedback win	999	999
79.23174820002168	3.2164021999342367	ITI	999	999
82.45355129998643	0.5917070999275893	fixation_1	999	999
83.0454538000049	3.0659696999937296	face	999	999
86.11147060000803	0.5917070999275893	fixation_2	999	999
86.65915249998216	1.01561809994746	feedback loss	999	999
87.6747734999517	5.316212599980645	ITI	999	999
92.99642899993341	0.6068576000398025	fixation_1	999	999
93.60340609995183	3.0646431000204757	face	999	999
96.66809599997941	0.6068576000398025	fixation_2	999	999
97.21697820001282	1.0158177999546751	feedback loss	999	999
98.2327990999911	5.3171377999242395	ITI	999	999
103.55558069993276	0.6056674000574276	fixation_1	999	999
104.16136519995052	3.0655264999950305	face	999	999
107.22693899995647	0.6056674000574276	fixation_2	999	999
107.77491319994442	1.0159114999696612	feedback win	999	999
108.79082849994302	5.3168153000297025	ITI	999	999
114.11315839993767	0.6060906000202522	fixation_1	999	999
114.71941589994822	3.062235999968834	face	999	999
117.78169929992873	0.6060906000202522	fixation_2	999	999
118.33293799997773	1.015897799981758	feedback win	999	999
119.34884059999604	3.2166279000230134	ITI	999	999
122.57098710001446	0.5913359998958185	fixation_1	999	999
123.16244089999236	3.062251799972728	face	999	999
126.22473569994327	0.5913359998958185	fixation_2	999	999
126.77594079996925	1.0159178000176325	feedback win	999	999
127.79186150000896	1.1175261999014765	ITI	999	999
128.9151036000112	0.6086625999305397	fixation_1	999	999
129.5238830000162	3.0637583999196067	face	999	999
132.58768709993456	0.6086625999305397	fixation_2	999	999
133.13745339994784	1.015838999999687	feedback win	999	999
134.15330339991488	1.1175266000209376	ITI	999	999
135.27630519995	0.5922204999951646	fixation_1	999	999
135.86866909998935	3.0653474000282586	face	999	999
138.93406519992277	0.5922204999951646	fixation_2	999	999
139.48224219994154	1.015844300040044	feedback loss	999	999
140.4980914000189	1.1175048999721184	ITI	999	999
141.62130699993577	0.608691000030376	fixation_1	999	999
142.23010899999645	3.0645905999699607	face	999	999
145.29474729998037	0.608691000030376	fixation_2	999	999
145.843610299984	1.0158407000126317	feedback loss	999	999
146.8594564999221	7.416774700046517	ITI	999	999
154.28207179997116	0.6042441000463441	fixation_1	999	999
154.8864348999923	3.063612199970521	face	999	999
157.95009489997756	0.6042441000463441	fixation_2	999	999
158.49992769991513	1.0158268000232056	feedback loss	999	999
159.51575749996118	3.217182300053537	ITI	999	999
162.73858080001082	0.6073954999446869	fixation_1	999	999
163.34612180001568	3.06553029990755	face	999	999
166.4116997999372	0.6073954999446869	fixation_2	999	999
166.9597340999171	1.015589600079693	feedback win	999	999
167.97532690002117	1.1180781999137253	ITI	999	999
169.10110179998446	0.6062726000091061	fixation_1	999	999
169.70752509997692	3.066879599937238	face	999	999
172.7744529999327	0.6062726000091061	fixation_2	999	999
173.3211381000001	1.0158574000233784	feedback loss	999	999
174.33699869993143	5.3165800999850035	ITI	999	999
179.65930769999977	0.6060286000138149	fixation_1	999	999
180.2654973999597	3.0657399999909103	face	999	999
183.33128569996916	0.6060286000138149	fixation_2	999	999
183.87909339996986	1.0158445000415668	feedback loss	999	999
184.89494229992852	1.117818900034763	ITI	999	999
186.01857459999155	0.59157619997859	fixation_1	999	999
186.61029280000366	3.064167600008659	face	999	999
189.67450809990987	0.59157619997859	fixation_2	999	999
190.22398209990934	1.0156011000508443	feedback win	999	999
191.23958619998302	1.1179600999457762	ITI	999	999
192.363552399911	0.5913494999986142	fixation_1	999	999
192.95507739996538	3.064724500058219	face	999	999
196.019850499928	0.5913494999986142	fixation_2	999	999
196.5687049999833	1.0158098000101745	feedback win	999	999
197.5845179000171	5.316631099907681	ITI	999	999
202.90700499992818	0.6059790999861434	fixation_1	999	999
203.51309789996594	3.063120099948719	face	999	999
206.5762657999294	0.6059790999861434	fixation_2	999	999
207.12669469998218	1.0158265000209212	feedback loss	999	999
208.14252419990953	5.31665790011175	ITI	999	999
213.46516329993028	0.5891613999847323	fixation_1	999	999
214.05444229999557	3.0634879999561235	face	999	999
217.11797629995272	0.5891613999847323	fixation_2	999	999
217.6679658999201	1.0160245000151917	feedback loss	999	999
218.68399339995813	3.2170890000415966	ITI	999	999
221.90697919996455	0.5905409000115469	fixation_1	999	999
222.49763689993415	3.062085899990052	face	999	999
225.55976929992903	0.5905409000115469	fixation_2	999	999
226.1112112000119	1.0157603999832645	feedback loss	999	999
227.126976099913	1.1179632000857964	ITI	999	999
228.25540569995064	0.6033926999662071	fixation_1	999	999
228.85894279996864	3.0645752999698743	face	999	999
231.92356579995248	0.6033926999662071	fixation_2	999	999
232.4724898999557	1.0160354999825358	feedback loss	999	999
233.488530099974	5.316725900047459	ITI	999	999
238.81122829997912	0.6056315000168979	fixation_1	999	999
239.41697889997158	3.0769829000346363	face	999	999
242.4940352999838	0.6056315000168979	fixation_2	999	999
243.04729479993694	1.0156366999726743	feedback loss	999	999
244.0629343999317	1.1178677000571042	ITI	999	999
245.18681119999383	0.6080398999620229	fixation_1	999	999
245.7949637999991	3.0625114999711514	face	999	999
248.8575224999804	0.6080398999620229	fixation_2	999	999
249.4086436999496	1.0158737000310794	feedback win	999	999
250.42452190001495	1.1182438998948783	ITI	999	999
251.54868819995318	0.607661799993366	fixation_1	999	999
252.156486999942	3.063469000044279	face	999	999
255.22000309999567	0.607661799993366	fixation_2	999	999
255.77011529996525	1.0159185000229627	feedback loss	999	999
256.7860457999632	1.1168566000415012	ITI	999	999
257.90894839994144	0.5920442000497133	fixation_1	999	999
258.50112769997213	3.0635229999898	face	999	999
261.56469699996524	0.5920442000497133	fixation_2	999	999
262.11486380000133	1.0159174000145867	feedback win	999	999
263.13078549993224	3.2164779000449926	ITI	999	999
266.35349559993483	0.6071382000809535	fixation_1	999	999
266.96074459992815	3.063128300011158	face	999	999
270.0239196999464	0.6071382000809535	fixation_2	999	999
270.5748784999596	1.0155324999941513	feedback win	999	999
271.59041509998497	1.1181957999942824	ITI	999	999
272.71457969991025	0.5909240000182763	fixation_1	999	999
273.3056220000144	3.0642548999749124	face	999	999
276.3699245000025	0.5909240000182763	fixation_2	999	999
276.9194015999092	1.0159015000099316	feedback win	999	999
277.9353061999427	3.2166987999808043	ITI	999	999
281.15815039991867	0.5906451999908313	fixation_1	999	999
281.74890539993066	3.0620918000349775	face	999	999
284.8110453999834	0.5906451999908313	fixation_2	999	999
285.3624460999854	1.0157851999392733	feedback win	999	999
286.37823449994903	5.317038599983789	ITI	999	999
291.7015375000192	0.621866500005126	fixation_1	999	999
292.3235201999778	3.064833499956876	face	999	999
295.3884012999479	0.621866500005126	fixation_2	999	999
295.93709289992694	1.0159726000856608	feedback win	999	999
296.953068499919	5.317219500080682	ITI	999	999
302.2768582999706	0.6044349999865517	fixation_1	999	999
302.88140700000804	3.062736399937421	face	999	999
305.94419099995866	0.6044349999865517	fixation_2	999	999
306.495136499987	1.01586959999986	feedback win	999	999
307.5110091000097	1.1173781999386847	ITI	999	999
308.6346790000098	0.6081050999928266	fixation_1	999	999
309.24293349997606	3.0641531000146642	face	999	999
312.30713420000393	0.6081050999928266	fixation_2	999	999
312.8565556999529	1.0156232999870554	feedback loss	999	999
313.87218229996506	1.1182261999929324	ITI	999	999
314.9968233999098	0.6073194000637159	fixation_1	999	999
315.60425939993	3.0647459999891	face	999	999
318.66905209992547	0.6073194000637159	fixation_2	999	999
319.2181099000154	1.015735299908556	feedback win	999	999
320.23384829994757	3.216529499972239	ITI	999	999
323.4567187000066	0.6072351000038907	fixation_1	999	999
324.0640994999558	3.064316099975258	face	999	999
327.12846239993814	0.6072351000038907	fixation_2	999	999
327.67770839994773	1.0157322000013664	feedback loss	999	999
328.6934447999811	5.316845200024545	ITI	999	999
334.01672319998033	0.6052903999807313	fixation_1	999	999
334.62212590000127	3.0634906999766827	face	999	999
337.6856624999782	0.6052903999807313	fixation_2	999	999
338.2356956999283	1.0157974000321701	feedback win	999	999
339.2514959999826	5.317264799959958	ITI	999	999
344.5751461000182	0.6048700999235734	fixation_1	999	999
345.180124699953	3.063901799963787	face	999	999
348.2440755999414	0.6048700999235734	fixation_2	999	999
348.79372459999286	1.01582089997828	feedback win	999	999
349.8095483999932	11.61632029991597	ITI	999	999
361.43231810000725	0.60050980001688	fixation_1	999	999
362.0329812999116	3.0631483000470325	face	999	999
365.09617699997034	0.60050980001688	fixation_2	999	999
365.64678700000513	1.0154216999653727	feedback loss	999	999
366.66221169999335	3.216636599972844	ITI	999	999
369.88544929993805	0.6070004000794142	fixation_1	999	999
370.4925643999595	3.064934300025925	face	999	999
373.55754549999256	0.6070004000794142	fixation_2	999	999
374.1062729000114	1.015744399977848	feedback win	999	999
375.1220203000121	3.2174500999972224	ITI	999	999
378.3458164000185	0.6062752999132499	fixation_1	999	999
378.95220529998187	3.0641236000228673	face	999	999
382.01637149997987	0.6062752999132499	fixation_2	999	999
382.5659119000193	1.0159317998914048	feedback loss	999	999
383.5818480999442	3.216903100023046	ITI	999	999
386.80520479998086	0.5900595999555662	fixation_1	999	999
387.39537659997586	3.06249239994213	face	999	999
390.4579162999289	0.5900595999555662	fixation_2	999	999
391.0090486999834	1.0157867999514565	feedback loss	999	999
392.0248397999676	5.316666000057012	ITI	999	999
397.34820080001373	0.6051342999562621	fixation_1	999	999
397.9535068999976	3.0651052999310195	face	999	999
401.01865939993877	0.6051342999562621	fixation_2	999	999
401.5669373999117	1.015726000070572	feedback loss	999	999
402.58266780001577	1.1173536999849603	ITI	999	999
403.70662439998705	0.5912923000287265	fixation_1	999	999
404.29806349996943	3.0655298000201583	face	999	999
407.36364070000127	0.5912923000287265	fixation_2	999	999
407.91184139996767	1.0158339999616146	feedback loss	999	999
408.92767989996355	5.317696499987505	ITI	999	999
414.25205050001387	0.6039802999002859	fixation_1	999	999
414.8561432999559	3.063735399977304	face	999	999
417.9199267999502	0.6039802999002859	fixation_2	999	999
418.4697361999424	1.0158925000578165	feedback win	999	999
419.4856636999175	1.118333899998106	ITI	999	999
420.6104475000175	0.5904057999141514	fixation_1	999	999
421.2009701000061	3.0654909999575466	face	999	999
424.26650819997303	0.5904057999141514	fixation_2	999	999
424.81457099993713	1.0157740000868216	feedback loss	999	999
425.8303479999304	3.217562700039707	ITI	999	999
429.0545161999762	0.5892419000156224	fixation_1	999	999
429.6439037999371	3.063505200087093	face	999	999
432.7074567999225	0.5892419000156224	fixation_2	999	999
433.25768059992697	1.0157141000963748	feedback loss	999	999
434.27339879993815	1.1180582999950275	ITI	999	999
435.3987422999926	0.6066275999182835	fixation_1	999	999
436.00548379996326	3.065599999972619	face	999	999
439.0711312999483	0.6066275999182835	fixation_2	999	999
439.61919300002046	1.01567959995009	feedback win	999	999
440.6348755999934	1.1182337999343872	ITI	999	999
441.7601411999203	0.5899822000646964	fixation_1	999	999
442.3502340000123	3.06462959991768	face	999	999
445.41490839992184	0.5899822000646964	fixation_2	999	999
445.96386719995644	1.015696799964644	feedback win	999	999
446.9795670999447	1.1182903000153601	ITI	999	999
448.1045133000007	0.607084900024347	fixation_1	999	999
448.7117084999336	3.063776500057429	face	999	999
451.7755307999905	0.607084900024347	fixation_2	999	999
452.3253074999666	1.015799800050445	feedback win	999	999
453.3411101999227	3.2167384000495076	ITI	999	999
456.5647536999313	0.6065149999922141	fixation_1	999	999
457.17143919994123	3.0623435999732465	face	999	999
460.2338311999338	0.6065149999922141	fixation_2	999	999
460.78506429994013	1.0157997000496835	feedback win	999	999
461.8008669000119	3.217379399924539	ITI	999	999
465.0251607999671	0.605934499995783	fixation_1	999	999
465.63126129994635	3.0653955000452697	face	999	999
468.69670430000406	0.605934499995783	fixation_2	999	999
469.2447213999694	1.0158698000013828	feedback loss	999	999
470.2605939999921	5.31682930001989	ITI	999	999
475.58447919995524	0.6212155000539497	fixation_1	999	999
476.205806999933	3.0643461000872776	face	999	999
479.2701999999117	0.6212155000539497	fixation_2	999	999
479.8194077999797	1.015809000004083	feedback loss	999	999
480.8352196000051	3.216962600010447	ITI	999	999
484.0587931999471	0.5899815000593662	fixation_1	999	999
484.6488888999447	3.0608000999782234	face	999	999
487.7097345999209	0.5899815000593662	fixation_2	999	999
488.26231449993793	1.0159466000040993	feedback loss	999	999
489.27826549997553	1.117864300031215	ITI	999	999
490.4029763999861	0.6071426999988034	fixation_1	999	999
491.01023889996577	3.065718499943614	face	999	999
494.0760041999165	0.6071426999988034	fixation_2	999	999
494.6239036999177	1.015646200045012	feedback win	999	999
495.6395525999833	1.1180771000217646	ITI	999	999
496.7644502000185	0.5905082999961451	fixation_1	999	999
497.35507299995515	3.0644545999821275	face	999	999
500.41957549995277	0.5905082999961451	fixation_2	999	999
500.96887919993605	1.015648900065571	feedback win	999	999
501.98453090002295	5.316999699920416	ITI	999	999
