TrialNumber,Trialn,Blockn,BlockType,Partner,Feedback,ITI,ran,order,studyStart,InitFixOnset,decision_onset,resp,resp_onset,rt,outcome_val,outcome_onset,outcome_offset,trialDuration,ITIonset,ITIoffset
1,1,1,1,1,1,0.750000,1.0,0.0,3.622481e-06,0.005567456,4.014686,2.0,4.4676957,0.45300943,6.0,6.531727,7.545911,3.531225,7.5461683,8.30073
2,2,1,1,1,1,0.750000,1.0,1.0,--,--,8.303976,3.0,9.650887,1.3469108,1.0,10.822118,11.832656,3.5286808,11.832849,12.583745
3,3,1,1,1,3,0.750000,1.0,2.0,--,--,12.586126,2.0,12.950625,0.36449918,3.0,15.1029415,16.114864,3.528738,16.115051,16.867182
4,4,1,1,1,1,0.750000,1.0,3.0,--,--,16.869562,2.0,17.201357,0.3317957,6.0,19.386198,20.397839,3.528277,20.398026,21.15057
5,5,1,1,1,1,0.750000,1.0,4.0,--,--,21.152939,3.0,21.50075,0.3478095,2.0,23.670849,24.680882,3.5279415,24.681099,25.433977
6,6,1,1,1,1,0.750000,1.0,5.0,--,--,25.43634,2.0,26.017555,0.5812164,6.0,27.95316,28.961721,3.5253808,28.96191,29.717026
7,7,1,1,1,1,0.750000,1.0,6.0,--,--,29.719463,2.0,29.950802,0.23133817,9.0,32.236195,33.246265,3.5268006,33.24645,34.000504
8,8,1,1,1,2,12,1.0,7.0,--,--,34.0029,3.0,34.417706,0.4148043,5.0,36.520386,37.53298,3.5300808,37.53319,49.533844
9,9,2,3,2,1,0.750000,1.0,8.0,--,--,49.621685,2.0,50.017555,0.3958723,9.0,52.13937,53.149845,3.52816,53.150043,53.90067
10,10,2,3,2,1,0.750000,1.0,9.0,--,--,53.974026,3.0,54.384277,0.41025266,3.0,56.490986,57.499855,3.52583,57.500042,58.2508
11,11,2,3,2,1,0.750000,1.0,10.0,--,--,58.309937,2.0,58.634052,0.32411513,7.0,60.827183,61.83785,3.5279129,61.83803,62.600697
12,12,2,3,2,1,0.750000,1.0,11.0,--,--,62.657166,3.0,62.884266,0.22710016,4.0,65.17408,66.18419,3.527024,66.18438,66.95046
13,13,2,3,2,3,0.750000,1.0,12.0,--,--,67.00541,3.0,67.351036,0.3456236,8.0,69.52294,70.53386,3.5284472,70.53406,71.3004
14,14,2,3,2,2,0.750000,1.0,13.0,--,--,71.35547,2.0,71.71774,0.3622795,5.0,73.8732,74.88285,3.5273855,74.88306,75.63413
15,15,2,3,2,1,0.750000,1.0,14.0,--,--,75.68921,3.0,76.034325,0.34511223,2.0,78.20607,79.21585,3.5266395,79.216034,79.96718
16,16,2,3,2,1,10,1.0,15.0,--,--,80.021706,3.0,80.30106,0.279353,2.0,82.5392,83.54885,3.5271428,83.549034,93.55046
17,17,3,2,1,3,0.750000,1.0,16.0,--,--,93.55814,3.0,93.9677,0.40955594,7.0,96.0761,97.08584,3.5276945,97.08602,97.8506
18,18,3,2,1,3,0.750000,1.0,17.0,--,--,97.853355,2.0,98.36757,0.5142107,2.0,100.37022,101.378365,3.5250063,101.378555,102.1338
19,19,3,2,1,1,0.750000,1.0,18.0,--,--,102.13628,3.0,102.53463,0.39834857,4.0,104.65292,105.66276,3.5264807,105.662964,106.417366
20,20,3,2,1,3,0.750000,1.0,19.0,--,--,106.41979,2.0,107.06755,0.6477542,4.0,108.93738,109.94726,3.5274587,109.94745,110.70055
21,21,3,2,1,2,0.750000,1.0,20.0,--,--,110.70295,3.0,111.01787,0.31491822,5.0,113.2202,114.23035,3.5273952,114.23053,114.98402
22,22,3,2,1,3,0.750000,1.0,21.0,--,--,114.986565,3.0,115.284294,0.29773316,8.0,117.50319,118.512856,3.5262954,118.513054,119.26745
23,23,3,2,1,3,0.750000,1.0,22.0,--,--,119.26983,3.0,119.61758,0.34774277,7.0,121.78746,122.79591,3.5260797,122.7961,123.55062
24,24,3,2,1,3,10,1.0,23.0,--,--,123.553,3.0,123.91781,0.36480376,8.0,126.070816,127.07905,3.5260408,127.07923,137.08383
25,25,4,6,3,3,0.750000,1.0,24.0,--,--,137.13425,2.0,137.75096,0.6167198,1.0,139.65118,140.66087,3.5266194,140.66106,141.41737
26,26,4,6,3,2,0.750000,1.0,25.0,--,--,141.45676,2.0,141.86761,0.41085216,5.0,143.97458,144.98447,3.5277023,144.98471,145.75058
27,27,4,6,3,3,0.750000,1.0,26.0,--,--,145.78302,2.0,146.06738,0.28436077,2.0,148.30055,149.31084,3.527827,149.31104,150.06705
28,28,4,6,3,3,0.750000,1.0,27.0,--,--,150.09998,3.0,150.53429,0.434312,7.0,152.6171,153.62546,3.5254803,153.62569,154.38412
29,29,4,6,3,3,0.750000,1.0,28.0,--,--,154.41687,3.0,154.63397,0.2170994,7.0,156.93417,157.94246,3.5255861,157.94266,158.70058
30,30,4,6,3,3,0.750000,1.0,29.0,--,--,158.73335,3.0,159.01752,0.28416243,6.0,161.25143,162.25987,3.5265133,162.26006,163.01743
31,31,4,6,3,3,0.750000,1.0,30.0,--,--,163.0509,2.0,163.2844,0.23349324,3.0,165.56898,166.57726,3.5263424,166.57744,167.33418
32,32,4,6,3,1,12,1.0,31.0,--,--,167.36748,2.0,167.37398,0.006493001,7.0,169.87852,170.88878,3.5212953,170.88898,182.90059
33,33,5,4,2,3,0.750000,1.0,32.0,--,--,182.97713,2.0,183.58395,0.6068352,3.0,185.49506,186.50526,3.5281355,186.50545,187.26709
34,34,5,4,2,2,0.750000,1.0,33.0,--,--,187.34064,3.0,187.76762,0.4269852,5.0,189.85924,190.86887,3.5282197,190.86903,191.63383
35,35,5,4,2,2,0.750000,1.0,34.0,--,--,191.69437,2.0,191.71758,0.023208652,5.0,194.21109,195.21968,3.5253124,195.21986,195.98389
36,36,5,4,2,3,0.750000,1.0,35.0,--,--,196.04036,2.0,196.36772,0.32736176,1.0,198.5582,199.56866,3.5283089,199.56885,200.33391
37,37,5,4,2,3,0.750000,1.0,36.0,--,--,200.38914,3.0,201.00122,0.61206937,8.0,202.90588,203.9148,3.525636,203.915,204.66753
38,38,5,4,2,3,0.750000,1.0,37.0,--,--,204.72235,3.0,205.06766,0.3453181,6.0,207.23982,208.24844,3.5260983,208.24864,209.00049
39,39,5,4,2,3,0.750000,1.0,38.0,--,--,209.05801,2.0,209.45093,0.39291966,4.0,211.57521,212.58383,3.5258248,212.58403,213.35062
40,40,5,4,2,3,8,1.0,39.0,--,--,213.40773,2.0,213.85097,0.4432366,3.0,215.92493,216.93373,3.5259964,216.93391,224.93398
41,41,6,5,3,1,0.750000,1.0,40.0,--,--,224.97545,3.0,226.03468,1.0592325,2.0,227.49242,228.50217,3.5267193,228.50235,229.2675
42,42,6,5,3,1,0.750000,1.0,41.0,--,--,229.30055,2.0,229.58434,0.28377393,6.0,231.81798,232.82578,3.5252242,232.82596,233.58398
43,43,6,5,3,1,0.750000,1.0,42.0,--,--,233.6162,2.0,233.9181,0.30191714,7.0,236.13425,237.14287,3.5266724,237.14305,237.90048
44,44,6,5,3,1,0.750000,1.0,43.0,--,--,237.93286,3.0,238.13426,0.20139472,1.0,240.45026,241.45789,3.5250292,241.4581,242.21722
45,45,6,5,3,1,0.750000,1.0,44.0,--,--,242.24971,2.0,242.70093,0.4512172,7.0,244.76692,245.77551,3.5258012,245.77574,246.53389
46,46,6,5,3,2,0.750000,1.0,45.0,--,--,246.56627,2.0,246.93396,0.3676936,5.0,249.0842,250.09407,3.5278018,250.09425,250.85057
47,47,6,5,3,1,0.750000,1.0,46.0,--,--,250.88293,2.0,251.23428,0.3513598,6.0,253.39987,254.41003,3.5271003,254.41022,255.16753
48,48,6,5,3,3,12,1.0,47.0,--,--,255.19998,3.0,255.53444,0.33445972,6.0,257.71716,258.72784,3.5278633,258.72803,270.73383
49,49,7,6,3,3,0.750000,1.0,48.0,--,--,270.77487,2.0,271.4177,0.64281464,4.0,273.29236,274.30188,3.5270083,274.30206,275.0671
50,50,7,6,3,2,0.750000,1.0,49.0,--,--,275.1006,3.0,275.4677,0.36711612,5.0,277.61823,278.62885,3.5282671,278.62903,279.38382
51,51,7,6,3,3,0.750000,1.0,50.0,--,--,279.41626,2.0,279.71738,0.301122,2.0,281.9342,282.94388,3.5276237,282.94406,283.70047
52,52,7,6,3,3,0.750000,1.0,51.0,--,--,283.73285,2.0,284.11765,0.3848038,4.0,286.25043,287.25888,3.5260108,287.2591,288.0172
53,53,7,6,3,1,0.750000,1.0,52.0,--,--,288.04956,2.0,288.43427,0.38469785,9.0,290.567,291.57687,3.5273147,291.57706,292.3341
54,54,7,6,3,3,0.750000,1.0,53.0,--,--,292.36694,3.0,292.66748,0.3005539,8.0,294.88525,295.8965,3.5295637,295.8967,296.6506
55,55,7,6,3,3,0.750000,1.0,54.0,--,--,296.68295,3.0,296.98425,0.3012986,9.0,299.2002,300.2088,3.5258284,300.20898,300.9671
56,56,7,6,3,3,8,1.0,55.0,--,--,300.99957,3.0,301.25107,0.25149366,8.0,303.5162,304.5249,3.52532,304.5251,312.534
57,57,8,4,2,3,0.750000,1.0,56.0,--,--,312.60608,2.0,313.08447,0.4784079,2.0,315.12332,316.13287,3.5267942,316.13306,316.88403
58,58,8,4,2,3,0.750000,1.0,57.0,--,--,316.96994,3.0,317.36768,0.39774,9.0,319.48822,320.4974,3.5274608,320.4976,321.25092
59,59,8,4,2,3,0.750000,1.0,58.0,--,--,321.30972,2.0,321.6344,0.32465547,4.0,323.82703,324.8359,3.5261624,324.8361,325.60062
60,60,8,4,2,3,0.750000,1.0,59.0,--,--,325.65814,3.0,326.018,0.35988715,7.0,328.17523,329.18393,3.5257866,329.1841,329.95078
61,61,8,4,2,3,0.750000,1.0,60.0,--,--,330.00842,2.0,330.31757,0.30915245,3.0,332.52542,333.53415,3.5257154,333.53433,334.3006
62,62,8,4,2,3,0.750000,1.0,61.0,--,--,334.35825,3.0,334.66742,0.30916423,7.0,336.8752,337.88382,3.525573,337.884,338.65054
63,63,8,4,2,2,0.750000,1.0,62.0,--,--,338.7055,2.0,338.95087,0.24538012,5.0,341.22302,342.2339,3.5283897,342.2341,343.00064
64,64,8,4,2,2,8,1.0,63.0,--,--,343.05847,2.0,343.35104,0.292566,5.0,345.576,346.5845,3.5260272,346.5847,354.60074
65,65,9,5,3,3,0.750000,1.0,64.0,--,--,354.64566,3.0,355.10092,0.45526835,8.0,357.1622,358.1719,3.526244,358.1721,358.93378
66,66,9,5,3,2,0.750000,1.0,65.0,--,--,358.96704,3.0,359.3342,0.36716503,5.0,361.48422,362.49487,3.5278451,362.49506,363.25046
67,67,9,5,3,1,0.750000,1.0,66.0,--,--,363.28278,2.0,363.56766,0.28488603,7.0,365.8015,366.81168,3.528903,366.8119,367.56726
68,68,9,5,3,1,0.750000,1.0,67.0,--,--,367.5998,3.0,367.98428,0.38447446,2.0,370.11722,371.12582,3.5260181,371.126,371.88406
69,69,9,5,3,1,0.750000,1.0,68.0,--,--,371.91766,2.0,372.20105,0.28340352,9.0,374.4352,375.4445,3.5268342,375.44467,376.20047
70,70,9,5,3,1,0.750000,1.0,69.0,--,--,376.233,2.0,376.5346,0.3016228,9.0,378.75006,379.75888,3.525895,379.75912,380.51718
71,71,9,5,3,1,0.750000,1.0,70.0,--,--,380.54956,3.0,380.8678,0.31822073,1.0,383.06638,384.0749,3.5253356,384.07507,384.8342
72,72,9,5,3,1,10,1.0,71.0,--,--,384.86658,2.0,385.1343,0.2677227,6.0,387.38385,388.39215,3.5255597,388.39243,398.40057
