TrialNumber,nTrial,Block,Endowment,ITI,ISI,L_Option,R_Option,ran,order,cue_Onset,endowment_onset,endowment_offset,ISI_onset,ISI_offset,decision_onset,resp,rt,resp_onset,decision_offset,trialDuration,ITIonset,ITIoffset
1,1,1,25,3,1.5,5,8,1.0,0.0,5.002478,6.0014186,6.0178785,6.018233,7.534616,7.534817,3.0,0.9666575,8.501474,11.051614,3.517575,11.052571,14.056605
2,2,2,15,5,1.5,1,7,1.0,1.0,15.052591,16.051214,16.067749,16.06807,17.585575,17.58574,2.0,1.5656079,19.151346,21.102589,3.5175402,21.103409,26.107538
3,3,3,25,1,3,0,2,1.0,2.0,27.102375,28.10125,28.11781,28.118069,31.135567,31.135767,2.0,1.3159273,32.451694,34.65326,3.5182006,34.6541,35.659286
4,4,3,23,3,1.5,0,10,1.0,3.0,36.65223,37.65146,37.66765,37.66792,39.18554,39.185738,3.0,1.6492463,40.834984,42.70254,3.5174823,42.703354,45.70831
5,5,1,21,8,1.5,4,9,1.0,4.0,46.702442,47.70113,47.71807,47.71838,49.234528,49.234688,3.0,2.5671134,51.801804,52.75118,3.517189,52.75201,60.756607
6,6,1,17,1,1.5,1,3,1.0,5.0,61.75238,62.75104,62.767967,62.76828,64.28427,64.284454,3.0,1.5003335,65.78478,67.80148,3.5177112,67.8023,68.80748
7,7,2,25,1,3,8,11,1.0,6.0,69.80222,70.80105,70.817764,70.81808,73.834465,73.83463,2.0,1.1999232,75.03455,77.352196,3.5182624,77.35303,78.35715
8,8,1,23,1,1.5,7,10,1.0,7.0,79.352356,80.351425,80.367584,80.36789,81.88444,81.8846,3.0,2.0336902,83.91829,85.4012,3.5173092,85.40204,86.4062
9,9,1,21,3,1.5,9,1,1.0,8.0,87.40206,88.40113,88.417786,88.4181,89.93432,89.93448,2.0,1.1668017,91.10128,93.451416,3.5176227,93.45225,96.45657
10,10,2,25,1,3,11,2,1.0,9.0,97.45214,98.451195,98.46752,98.46784,101.4854,101.48556,3.0,1.1992675,102.68483,105.002396,3.5175114,105.00321,106.00735
11,11,1,23,3,1.5,1,7,1.0,10.0,107.002,108.00117,108.01768,108.01799,109.53433,109.53449,3.0,2.3335712,111.868065,113.05116,3.517374,113.051994,116.05637
12,12,1,15,5,4.5,3,5,1.0,11.0,117.05239,118.05109,118.06768,118.068,122.58454,122.5847,3.0,2.149987,124.73469,126.10216,3.5181491,126.10298,131.10728
13,13,2,25,1,4.5,2,8,1.0,12.0,132.10258,133.10092,133.11774,133.11806,137.63434,137.63449,2.0,2.0330575,139.66756,141.15125,3.517446,141.15207,142.15613
14,14,3,15,3,1.5,0,7,1.0,13.0,143.15215,144.15105,144.16743,144.16771,145.68405,145.68427,3.0,1.0170981,146.70135,149.20062,3.517059,149.20145,152.20627
15,15,2,21,5,1.5,7,1,1.0,14.0,153.20201,154.20093,154.21774,154.21805,155.7342,155.73438,3.0,1.1671035,156.90147,159.25122,3.5175548,159.25217,164.2565
16,16,1,25,3,4.5,5,11,1.0,15.0,165.25203,166.25085,166.26785,166.26819,170.78427,170.78442,3.0,1.4838718,172.2683,174.30127,3.517532,174.3021,177.3063
17,17,3,17,3,1.5,0,3,1.0,16.0,178.30179,179.30106,179.31743,179.31769,180.83403,180.83423,2.0,1.5672202,182.40146,184.35052,3.5169954,184.35138,187.35555
18,18,3,19,3,1.5,0,4,1.0,17.0,188.3523,189.35074,189.36732,189.36758,190.8842,190.8844,2.0,1.4668082,192.35121,194.40208,3.5183606,194.4029,197.40714
19,19,2,15,1,3,3,1,1.0,18.0,198.40173,199.40077,199.41747,199.41779,202.43416,202.43433,3.0,0.93339324,203.36772,205.95026,3.5165987,205.95108,206.95515
20,20,3,23,1,3,1,0,1.0,19.0,207.9519,208.95078,208.9674,208.96768,211.98401,211.98422,3.0,1.3004106,213.28464,215.50166,3.518148,215.5025,216.5071
21,21,3,17,1,3,0,8,1.0,20.0,217.50179,218.50067,218.51726,218.51752,221.53426,221.53445,999.0,999.0,999.0,224.53448,3.516706,225.05135,226.0555
22,22,1,15,1,1.5,3,1,1.0,21.0,227.05177,228.05104,228.06744,228.06775,229.58423,229.58438,3.0,1.5332812,231.11768,233.10109,3.5173786,233.1019,234.10603
23,23,2,21,3,3,7,4,1.0,22.0,235.10222,236.10101,236.11737,236.11769,239.13393,239.13411,3.0,1.4671406,240.60124,242.65065,3.51726,242.65149,245.65607
24,24,3,23,5,1.5,0,10,1.0,23.0,246.65172,247.65108,247.66737,247.66763,249.18405,249.18423,2.0,1.6168677,250.8011,252.70108,3.517518,252.70189,257.70703
25,25,3,23,8,3,1,0,1.0,24.0,258.7018,259.7008,259.7172,259.71744,262.734,262.73422,3.0,1.2829491,264.01715,266.252,3.518486,266.25284,274.25696
26,26,2,17,1,1.5,5,3,1.0,25.0,275.25183,276.25095,276.2672,276.26755,277.78412,277.7843,3.0,1.2668566,279.05115,281.30115,3.517558,281.302,282.30643
27,27,2,15,3,4.5,1,3,1.0,26.0,283.30154,284.30072,284.31738,284.3177,288.83395,288.8341,2.0,1.966896,290.80103,292.35242,3.5189805,292.35324,295.35794
28,28,3,25,8,3,5,0,1.0,27.0,296.3521,297.35037,297.36716,297.36743,300.38394,300.38412,2.0,2.1001434,302.48428,303.90073,3.5172803,303.90155,311.90616
29,29,1,23,1,1.5,10,4,1.0,28.0,312.9016,313.90048,313.91714,313.91745,315.4339,315.43408,3.0,1.9998312,317.4339,318.9519,3.5185099,318.9527,319.9576
30,30,2,19,1,4.5,9,1,1.0,29.0,320.9516,321.95065,321.9671,321.9674,326.4838,326.48395,3.0,2.1835408,328.66748,330.00073,3.5174775,330.00156,331.00574
31,31,2,17,5,1.5,5,1,1.0,30.0,332.00168,333.0006,333.01706,333.01736,334.53372,334.5339,3.0,1.7167373,336.25064,338.0511,3.5178993,338.05194,343.05597
32,32,1,21,1,1.5,7,1,1.0,31.0,344.0517,345.0506,345.067,345.0673,346.58365,346.58383,2.0,2.5836577,349.16748,350.101,3.5178883,350.10187,351.10593
33,33,2,15,1,4.5,7,3,1.0,32.0,352.10187,353.10095,353.11728,353.11758,357.63364,357.63382,3.0,0.9673974,358.60123,361.14984,3.5166888,361.15063,362.15475
34,34,3,19,1,1.5,0,6,1.0,33.0,363.15195,364.15036,364.16705,364.16733,365.68478,365.685,3.0,1.38205,367.06705,369.20163,3.5173256,369.20245,370.2068
35,35,3,21,1,3,7,0,1.0,34.0,371.20157,372.20062,372.21713,372.2174,375.2339,375.2341,2.0,1.6666819,376.9008,378.75092,3.517523,378.7518,379.75595
36,36,1,17,1,1.5,8,5,1.0,35.0,380.75153,381.75052,381.76712,381.76743,383.28424,383.28442,2.0,1.1831669,384.4676,386.80054,3.5168276,386.80136,387.80673
