TrialNumber,nTrial,Block,Endowment,ITI,ISI,L_Option,R_Option,ran,order,cue_Onset,endowment_onset,endowment_offset,ISI_onset,ISI_offset,decision_onset,resp,rt,resp_onset,decision_offset,trialDuration,ITIonset,ITIoffset
1,1,1,15,1,1.5,1,5,1.0,0.0,5.004365,6.0041223,6.020998,6.021254,7.537664,7.537925,3.0,0.8851692,8.423094,11.053422,3.516009,11.054086,12.0590105
2,2,1,25,1,1.5,11,8,1.0,1.0,13.044228,14.0440235,14.060449,14.060747,15.576967,15.577126,2.0,1.5867524,17.163877,19.094887,3.5181634,19.095436,20.100113
3,3,2,15,1,1.5,5,3,1.0,2.0,21.100712,22.083931,22.100668,22.100922,23.61792,23.618116,3.0,1.0016633,24.61978,27.135475,3.5177407,27.13599,28.140423
4,4,3,21,3,1.5,0,7,1.0,3.0,29.141047,30.14054,30.157034,30.157225,31.673746,31.673996,2.0,1.8692309,33.543224,35.191425,3.5178192,35.191944,38.197018
5,5,2,19,5,3,4,1,1.0,4.0,39.182255,40.18256,40.199394,40.199757,43.215816,43.215984,3.0,0.9364012,44.152386,46.73291,3.517305,46.733414,51.737995
6,6,1,19,3,3,9,1,1.0,5.0,52.726837,53.726677,53.743385,53.743687,56.75984,56.76001,3.0,0.72026736,57.480278,60.276745,3.517113,60.277256,63.281616
7,7,3,21,1,3,0,9,1.0,6.0,64.269714,65.26948,65.286095,65.28632,68.30178,68.30199,3.0,1.3381507,69.64014,71.81879,3.5172067,71.81933,72.8239
8,8,1,21,1,1.5,4,9,1.0,7.0,73.81111,74.81104,74.82704,74.827324,76.343834,76.344,3.0,1.9196665,78.263664,79.86111,3.5174866,79.86161,80.866005
9,9,3,23,1,3,0,1,1.0,8.0,81.85057,82.85024,82.867165,82.86733,85.88474,85.88493,2.0,1.1693952,87.05433,89.40277,3.5182467,89.40332,90.407715
10,10,2,19,5,1.5,1,6,1.0,9.0,91.40874,92.3917,92.408516,92.40876,93.92582,93.92599,2.0,0.6845646,94.61056,97.44216,3.5165339,97.44265,102.447525
11,11,3,15,1,1.5,5,0,1.0,10.0,103.43547,104.43504,104.451485,104.451706,105.968094,105.96829,2.0,1.0523736,107.02066,109.4854,3.5174663,109.48588,110.49053
12,12,3,23,1,1.5,0,7,1.0,11.0,111.4919,112.474174,112.49153,112.49172,114.00812,114.00832,2.0,2.186588,116.194916,117.52539,3.517457,117.52591,118.53018
13,13,2,19,1,3,9,4,1.0,12.0,119.51543,120.51459,120.531586,120.53182,123.54754,123.547714,3.0,2.6725225,126.22024,127.064674,3.5173604,127.0652,128.0696
14,14,3,25,3,1.5,0,5,1.0,13.0,129.05644,130.05606,130.0728,130.07295,131.58908,131.58928,2.0,1.6528553,133.24213,135.10707,3.5181715,135.10757,138.11282
15,15,2,19,5,4.5,4,6,1.0,14.0,139.09836,140.09784,140.11458,140.11493,144.63101,144.63118,2.0,1.355068,145.98625,148.1476,3.516806,148.1481,153.152
16,16,3,25,3,4.5,0,11,1.0,15.0,154.1439,155.14323,155.16008,155.1603,159.67647,159.67667,3.0,1.188881,160.86554,163.19397,3.5176866,163.19447,166.19847
17,17,3,15,5,1.5,5,0,1.0,16.0,167.18777,168.18758,168.20416,168.20435,169.721,169.72119,3.0,1.3689708,171.09016,173.23892,3.5181036,173.23943,178.24373
18,18,1,23,3,1.5,10,1,1.0,17.0,179.23097,180.23093,180.24745,180.24768,181.7649,181.76505,2.0,1.0180025,182.78305,185.28175,3.5170858,185.28226,188.28687
19,19,1,15,3,3,5,3,1.0,18.0,189.27252,190.27203,190.28918,190.28947,193.30553,193.30568,2.0,1.270383,194.57607,196.8227,3.5173934,196.8232,199.82748
20,20,3,21,1,1.5,9,0,1.0,19.0,200.81549,201.81514,201.83191,201.83208,203.3488,203.349,2.0,0.9518109,204.30081,206.86761,3.518997,206.86812,207.8728
21,21,2,15,1,1.5,1,3,1.0,20.0,208.87183,209.8722,209.88847,209.88872,211.40446,211.40462,2.0,0.869457,212.27408,214.92078,3.51652,214.92126,215.9258
22,22,2,21,3,1.5,4,9,1.0,21.0,216.91177,217.91167,217.92854,217.92885,219.44577,219.44592,2.0,0.98480886,220.43073,222.96379,3.5182388,222.9643,225.96869
23,23,1,15,1,1.5,1,7,1.0,22.0,226.95354,227.95326,227.9698,227.97005,229.4873,229.48746,3.0,1.835648,231.3231,233.00464,3.5175653,233.00514,234.0086
24,24,2,23,1,4.5,7,10,1.0,23.0,234.9936,235.99329,236.00996,236.0102,240.52666,240.52681,2.0,0.92154455,241.44836,244.04369,3.517254,244.04419,245.04756
25,25,2,23,8,3,4,10,1.0,24.0,246.0356,247.0355,247.0525,247.05272,250.06877,250.06894,2.0,1.571031,251.63997,253.58464,3.5160778,253.58513,261.59
26,26,3,23,1,4.5,1,0,1.0,25.0,262.58313,263.58258,263.59912,263.59933,268.11594,268.11618,3.0,1.3050793,269.42123,271.63266,3.5168526,271.63315,272.63672
27,27,1,19,3,1.5,6,1,1.0,26.0,273.6252,274.6248,274.6421,274.64233,276.15756,276.1577,2.0,1.4533746,277.61108,279.67374,3.5163786,279.67422,282.67868
28,28,3,17,3,3,0,5,1.0,27.0,283.66693,284.66647,284.68335,284.6835,287.69952,287.69974,2.0,1.3040141,289.00375,291.21567,3.51631,291.2162,294.22052
29,29,1,19,1,3,4,1,1.0,28.0,295.20987,296.2093,296.22598,296.2263,299.2425,299.24265,2.0,0.85329413,300.09595,302.75946,3.5171964,302.75995,303.76346
30,30,3,25,8,1.5,2,0,1.0,29.0,304.7509,305.75082,305.76715,305.76727,307.28363,307.2838,3.0,1.1025869,308.3864,310.80035,3.5169055,310.80084,318.8056
31,31,2,25,5,3,11,8,1.0,30.0,319.7966,320.79636,320.81326,320.81354,323.83026,323.8304,3.0,1.2195659,325.05,327.34836,3.5182824,327.34882,332.3532
32,32,2,17,1,1.5,8,1,1.0,31.0,333.34094,334.34067,334.35745,334.35767,335.87384,335.874,3.0,1.3366547,337.21066,339.39035,3.5167096,339.39084,340.3943
33,33,1,21,1,4.5,1,4,1.0,32.0,341.38113,342.38058,342.39737,342.39758,346.91434,346.9145,3.0,1.0546441,347.96915,350.4301,3.515987,350.4306,351.43527
34,34,2,17,1,1.5,5,8,1.0,33.0,352.42343,353.4232,353.43945,353.43967,354.95728,354.9575,2.0,1.0181369,355.97565,358.4743,3.5171745,358.4748,359.47925
35,35,1,21,3,1.5,1,4,1.0,34.0,360.48007,361.46338,361.47983,361.48004,362.99725,362.99744,3.0,1.0680536,364.0655,366.51422,3.5171754,366.51474,369.52002
36,36,1,15,8,4.5,1,7,1.0,35.0,370.50473,371.5044,371.52087,371.52115,376.03824,376.0384,3.0,1.1046822,377.14307,379.55524,3.5171993,379.55573,387.56018
