TrialNumber,Trialn,Blockn,BlockType,Partner,Feedback,ITI,ran,order,studyStart,InitFixOnset,decision_onset,resp,resp_onset,rt,outcome_val,outcome_onset,outcome_offset,trialDuration,ITIonset,ITIoffset
1,1,1,4,2,3,0.750000,1.0,0.0,3.3205142e-06,0.005226622,4.668235,3.0,6.0150356,1.3468009,9.0,7.184902,8.2008095,3.5325751,8.201037,8.967147
2,2,1,4,2,2,0.750000,1.0,1.0,--,--,9.542439,2.0,10.385753,0.84331334,5.0,12.058105,13.070744,3.528304,13.070922,13.8211355
3,3,1,4,2,3,0.750000,1.0,2.0,--,--,14.306884,2.0,14.939014,0.6321299,2.0,16.823826,17.833614,3.5267305,17.8338,18.591417
4,4,1,4,2,3,0.750000,1.0,3.0,--,--,19.06712,3.0,19.7094,0.6422804,9.0,21.584867,22.592566,3.5254467,22.592747,23.345287
5,5,1,4,2,3,0.750000,1.0,4.0,--,--,23.824924,2.0,24.797009,0.97208375,3.0,26.341785,27.3513,3.5263743,27.351482,28.116245
6,6,1,4,2,3,0.750000,1.0,5.0,--,--,28.595572,2.0,29.3841,0.7885271,3.0,31.113853,32.12077,3.5251982,32.121006,32.886757
7,7,1,4,2,1,0.750000,1.0,6.0,--,--,33.36247,3.0,33.82081,0.45833915,2.0,35.87979,36.889656,3.5271878,36.88983,37.640327
8,8,1,4,2,3,10,1.0,7.0,--,--,38.118908,3.0,38.691635,0.57272595,6.0,40.635788,41.647675,3.5287633,41.647854,51.652145
9,9,2,1,1,1,0.750000,1.0,8.0,--,--,51.6637,3.0,52.770054,1.1063527,1.0,54.181007,55.191494,3.5277927,55.19167,55.95572
10,10,2,1,1,1,0.750000,1.0,9.0,--,--,55.958126,2.0,56.556404,0.59827644,7.0,58.47571,59.48558,3.5274558,59.485764,60.24241
11,11,2,1,1,1,0.750000,1.0,10.0,--,--,60.244743,2.0,60.743114,0.49836957,6.0,62.762684,63.769478,3.5247345,63.769653,64.52935
12,12,2,1,1,3,0.750000,1.0,11.0,--,--,64.531845,3.0,65.41342,0.8815808,6.0,67.0497,68.05871,3.526862,68.05889,68.81614
13,13,2,1,1,1,0.750000,1.0,12.0,--,--,68.818504,3.0,69.517,0.6984954,4.0,71.33566,72.34685,3.5283377,72.34702,73.10317
14,14,2,1,1,1,0.750000,1.0,13.0,--,--,73.105545,3.0,73.67078,0.56523347,3.0,75.62268,76.62953,3.5239832,76.62971,77.39003
15,15,2,1,1,3,0.750000,1.0,14.0,--,--,77.39237,2.0,77.82384,0.43146557,1.0,79.90958,80.91911,3.52674,80.919304,81.67691
16,16,2,1,1,1,8,1.0,15.0,--,--,81.679245,3.0,82.761246,1.0819976,4.0,84.19762,85.20645,3.5272086,85.20664,93.21965
17,17,3,3,2,3,0.750000,1.0,16.0,--,--,93.79929,2.0,94.90465,1.1053596,2.0,96.31662,97.32553,3.5262432,97.32577,98.09031
18,18,3,3,2,2,0.750000,1.0,17.0,--,--,98.73859,3.0,99.19179,0.45320463,5.0,101.25557,102.26443,3.5258417,102.2646,103.02764
19,19,3,3,2,1,0.750000,1.0,18.0,--,--,103.506035,3.0,104.19557,0.68954307,3.0,106.02356,107.03168,3.525648,107.03186,107.79848
20,20,3,3,2,1,0.750000,1.0,19.0,--,--,108.3086,3.0,108.832726,0.52412623,1.0,110.825424,111.83271,3.5241075,111.83289,112.58574
21,21,3,3,2,1,0.750000,1.0,20.0,--,--,113.059166,2.0,113.42021,0.3610411,7.0,115.57557,116.5824,3.5232306,116.58258,117.339165
22,22,3,3,2,1,0.750000,1.0,21.0,--,--,117.81283,2.0,118.19038,0.3775505,7.0,120.3301,121.33803,3.5251992,121.3382,122.093376
23,23,3,3,2,1,0.750000,1.0,22.0,--,--,122.567894,3.0,122.99434,0.42644,2.0,125.08515,126.09319,3.5252917,126.09337,126.84723
24,24,3,3,2,1,10,1.0,23.0,--,--,127.32073,3.0,128.73264,1.4119003,2.0,129.83905,130.8461,3.5253696,130.84628,140.85867
25,25,4,1,1,1,0.750000,1.0,24.0,--,--,140.8646,3.0,141.97673,1.112136,4.0,143.38135,144.38925,3.5246537,144.38942,145.14545
26,26,4,1,1,1,0.750000,1.0,25.0,--,--,145.14787,3.0,145.84634,0.698461,2.0,147.6654,148.67226,3.5243802,148.67244,149.43237
27,27,4,1,1,1,0.750000,1.0,26.0,--,--,149.43468,3.0,149.99991,0.5652247,1.0,151.95139,152.95874,3.5240574,152.95891,153.71931
28,28,4,1,1,1,0.750000,1.0,27.0,--,--,153.72165,3.0,154.05313,0.33147752,2.0,156.23885,157.28494,3.5633016,157.28514,158.03967
29,29,4,1,1,2,0.750000,1.0,28.0,--,--,158.042,3.0,158.45688,0.414881,5.0,160.55835,161.56784,3.525839,161.56802,162.32625
30,30,4,1,1,1,0.750000,1.0,29.0,--,--,162.32857,2.0,162.71057,0.3820119,7.0,164.84534,165.85355,3.5249884,165.85374,166.61319
31,31,4,1,1,1,0.750000,1.0,30.0,--,--,166.61559,3.0,167.1808,0.5652084,2.0,169.13303,170.13998,3.5243928,170.14017,170.90044
32,32,4,1,1,3,8,1.0,31.0,--,--,170.90273,2.0,171.2504,0.3476757,2.0,173.42126,174.43027,3.5275483,174.43045,182.44296
33,33,5,2,1,1,0.750000,1.0,32.0,--,--,182.44635,3.0,183.44403,0.9976889,3.0,184.9641,185.97365,3.527306,185.97383,186.7297
34,34,5,2,1,3,0.750000,1.0,33.0,--,--,186.73212,2.0,187.13052,0.39841232,4.0,189.24913,190.25786,3.525752,190.25806,191.01665
35,35,5,2,1,3,0.750000,1.0,34.0,--,--,191.01898,2.0,191.43394,0.4149489,2.0,193.537,194.54376,3.524778,194.54395,195.30353
36,36,5,2,1,3,0.750000,1.0,35.0,--,--,195.30608,3.0,195.98772,0.6816283,8.0,197.82327,198.83374,3.527655,198.83395,199.5902
37,37,5,2,1,2,0.750000,1.0,36.0,--,--,199.59258,3.0,200.84167,1.2490973,5.0,202.10944,203.11824,3.5256658,203.11842,203.87717
38,38,5,2,1,3,0.750000,1.0,37.0,--,--,203.87955,2.0,204.24443,0.36488122,2.0,206.39719,207.40674,3.5271924,207.40692,208.16414
39,39,5,2,1,3,0.750000,1.0,38.0,--,--,208.16664,3.0,209.0317,0.8650518,9.0,210.68419,211.69104,3.524408,211.69122,212.45078
40,40,5,2,1,3,12,1.0,39.0,--,--,212.45326,2.0,213.13461,0.6813515,2.0,214.97116,215.97798,3.5247161,215.97815,227.98029
41,41,6,3,2,1,0.750000,1.0,40.0,--,--,228.55971,3.0,229.78207,1.2223732,2.0,231.07713,232.08635,3.5266423,232.08653,232.85083
42,42,6,3,2,1,0.750000,1.0,41.0,--,--,233.42244,3.0,233.9525,0.5300635,1.0,235.93884,236.94527,3.522837,236.94545,237.7051
43,43,6,3,2,1,0.750000,1.0,42.0,--,--,238.18147,2.0,238.57286,0.3913947,9.0,240.69809,241.70593,3.5244641,241.70612,242.45862
44,44,6,3,2,1,0.750000,1.0,43.0,--,--,242.93048,2.0,244.56096,1.6304697,9.0,245.44745,246.4549,3.5244067,246.45508,247.213
45,45,6,3,2,1,0.750000,1.0,44.0,--,--,247.6861,3.0,248.11375,0.42765382,1.0,250.20349,251.21094,3.5248368,251.21112,251.96658
46,46,6,3,2,2,0.750000,1.0,45.0,--,--,252.44377,3.0,253.13425,0.6904698,5.0,254.96106,255.9709,3.5271263,255.97107,256.73737
47,47,6,3,2,1,0.750000,1.0,46.0,--,--,257.21255,2.0,257.57153,0.35895458,9.0,259.73117,260.7406,3.5280192,260.74078,261.4912
48,48,6,3,2,3,10,1.0,47.0,--,--,261.96765,3.0,262.50912,0.5414459,9.0,264.48502,265.4945,3.526828,265.4947,275.50272
49,49,7,6,3,3,0.750000,1.0,48.0,--,--,276.20035,3.0,277.5213,1.3209283,7.0,278.71814,279.7258,3.5254505,279.726,280.4901
50,50,7,6,3,3,0.750000,1.0,49.0,--,--,281.0077,2.0,281.6913,0.6836363,4.0,283.52493,284.5321,3.5244284,284.5323,285.294
51,51,7,6,3,3,0.750000,1.0,50.0,--,--,285.80927,2.0,288.04678,2.2375238,4.0,288.3266,289.33377,3.524506,289.33395,290.0981
52,52,7,6,3,1,0.750000,1.0,51.0,--,--,290.61572,3.0,291.19907,0.5833612,3.0,293.1319,294.14075,3.5250487,294.14093,294.90192
53,53,7,6,3,3,0.750000,1.0,52.0,--,--,295.41855,3.0,295.9866,0.56805533,7.0,297.93518,298.94434,3.5257964,298.94452,299.70578
54,54,7,6,3,1,0.750000,1.0,53.0,--,--,300.22876,2.0,301.04065,0.811873,7.0,302.74667,303.75543,3.526655,303.7556,304.50992
55,55,7,6,3,3,0.750000,1.0,54.0,--,--,305.02713,2.0,306.07822,1.0510787,1.0,307.54285,308.5527,3.5255554,308.5529,309.3142
56,56,7,6,3,3,12,1.0,55.0,--,--,309.83395,3.0,310.34824,0.5142641,7.0,312.3518,313.3593,3.525339,313.35947,325.36087
57,57,8,5,3,1,0.750000,1.0,56.0,--,--,326.05093,2.0,327.12875,1.0778466,9.0,328.56778,329.57697,3.5260344,329.57712,330.3311
58,58,8,5,3,1,0.750000,1.0,57.0,--,--,330.844,3.0,331.28198,0.43797183,3.0,333.36176,334.36993,3.525923,334.37012,335.13525
59,59,8,5,3,1,0.750000,1.0,58.0,--,--,335.65182,3.0,336.05276,0.4009541,4.0,338.16974,339.17657,3.5247624,339.17676,339.93903
60,60,8,5,3,1,0.750000,1.0,59.0,--,--,340.45422,2.0,340.75693,0.30269578,6.0,342.97122,343.97858,3.5243654,343.97876,344.74295
61,61,8,5,3,3,0.750000,1.0,60.0,--,--,345.2563,3.0,345.69458,0.43828064,6.0,347.77258,348.7821,3.5258248,348.7823,349.5467
62,62,8,5,3,1,0.750000,1.0,61.0,--,--,350.0605,3.0,350.9317,0.87122023,1.0,352.5775,353.5863,3.5258415,353.5865,354.35046
63,63,8,5,3,1,0.750000,1.0,62.0,--,--,354.86948,3.0,355.5022,0.6327349,4.0,357.3868,358.39392,3.5244663,358.3941,359.1547
64,64,8,5,3,2,8,1.0,63.0,--,--,359.66702,2.0,359.97226,0.30525717,5.0,362.18365,363.19272,3.5257225,363.19293,371.19806
65,65,9,2,1,3,0.750000,1.0,64.0,--,--,371.204,2.0,372.54953,1.345534,3.0,373.7206,374.72946,3.5254672,374.72964,375.48517
66,66,9,2,1,3,0.750000,1.0,65.0,--,--,375.4876,2.0,375.88593,0.39830276,4.0,378.00388,379.01065,3.5230305,379.01083,379.77182
67,67,9,2,1,3,0.750000,1.0,66.0,--,--,379.77423,3.0,380.20563,0.4314224,9.0,382.2922,383.299,3.524793,383.2992,384.05853
68,68,9,2,1,2,0.750000,1.0,67.0,--,--,384.06104,2.0,384.89316,0.83211416,5.0,386.57822,387.58685,3.525811,387.587,388.3457
69,69,9,2,1,2,0.750000,1.0,68.0,--,--,388.34808,3.0,389.3129,0.9648062,5.0,390.86655,391.8741,3.5260344,391.8743,392.63217
70,70,9,2,1,3,0.750000,1.0,69.0,--,--,392.6345,3.0,393.29965,0.6651506,6.0,395.15152,396.1611,3.5266259,396.16132,396.9189
71,71,9,2,1,3,0.750000,1.0,70.0,--,--,396.92126,2.0,397.43643,0.5151875,1.0,399.43802,400.44537,3.5241194,400.44556,401.20593
72,72,9,2,1,3,12,1.0,71.0,--,--,401.20825,2.0,402.00674,0.7984898,4.0,403.7265,404.73337,3.525127,404.73355,416.73532
