TrialNumber,nTrial,Block,Endowment,ITI,ISI,L_Option,R_Option,ran,order,cue_Onset,endowment_onset,endowment_offset,ISI_onset,ISI_offset,decision_onset,resp,rt,resp_onset,decision_offset,trialDuration,ITIonset,ITIoffset
1,1,2,17,1,1.5,8,3,1.0,0.0,5.001906,6.001844,6.01867,6.0189548,7.5343785,7.5345745,3.0,1.2204978,8.755073,11.0513935,3.5173168,11.052038,12.056205
2,2,3,25,3,1.5,0,5,1.0,1.0,13.041867,14.041621,14.058596,14.05874,15.574734,15.574965,3.0,1.4862258,17.061192,19.091436,3.516841,19.091925,22.097118
3,3,3,23,8,1.5,0,4,1.0,2.0,23.083588,24.083532,24.099817,24.09999,25.616373,25.616566,2.0,1.4530567,27.069622,29.133398,3.5172095,29.133898,37.138367
4,4,3,21,1,3,7,0,1.0,3.0,38.12905,39.12877,39.145706,39.145893,42.162197,42.162388,2.0,1.4713185,43.633705,45.6783,3.5162718,45.67878,46.68304
5,5,3,25,1,1.5,2,0,1.0,4.0,47.670185,48.670532,48.687027,48.68721,50.204304,50.20449,3.0,1.6853663,51.889854,53.72125,3.5171123,53.721718,54.725243
6,6,2,17,1,3,1,3,1.0,5.0,55.71041,56.710075,56.726696,56.726974,59.743755,59.74391,2.0,0.8024185,60.546333,63.26118,3.5176156,63.261642,64.26622
7,7,2,21,3,4.5,4,7,1.0,6.0,65.2512,66.25116,66.268036,66.26828,70.78426,70.78443,2.0,1.2719243,72.05636,74.30121,3.517163,74.30172,77.30619
8,8,2,25,8,3,8,11,1.0,7.0,78.295494,79.29569,79.311745,79.31194,82.328705,82.32885,2.0,1.203763,83.532616,85.84606,3.5175664,85.84654,93.8511
9,9,2,19,3,3,4,9,1.0,8.0,94.842476,95.84207,95.858925,95.85913,98.87518,98.875336,2.0,1.253862,100.129196,102.39205,3.5170882,102.39255,105.39611
10,10,3,21,3,1.5,0,7,1.0,9.0,106.384964,107.38507,107.40197,107.40214,108.91906,108.91924,3.0,1.2846844,110.20393,112.43706,3.5181694,112.43754,115.441895
11,11,3,19,3,1.5,6,0,1.0,10.0,116.42685,117.42659,117.44325,117.44347,118.96004,118.96023,2.0,1.5696851,120.529915,122.47605,3.5161915,122.47655,125.481155
12,12,3,25,3,4.5,0,2,1.0,11.0,126.46841,127.468124,127.48487,127.48503,132.00143,132.00172,2.0,1.4882499,133.48997,135.51894,3.5175664,135.51941,138.5239
13,13,3,15,1,1.5,3,0,1.0,12.0,139.51222,140.5119,140.52914,140.52931,142.04588,142.04608,2.0,1.8526238,143.8987,145.56389,3.518164,145.56436,146.5689
14,14,1,23,1,1.5,1,7,1.0,13.0,147.56943,148.56885,148.58536,148.58556,150.1021,150.10225,3.0,1.0524235,151.15468,153.61955,3.5176568,153.62003,154.62444
15,15,1,15,1,1.5,1,5,1.0,14.0,155.62573,156.6087,156.62535,156.62555,158.14285,158.143,3.0,2.135891,160.2789,161.66084,3.5181997,161.66133,162.66582
16,16,1,17,3,3,8,5,1.0,15.0,163.6656,164.66536,164.68217,164.68239,167.6983,167.69846,2.0,1.6213446,169.31981,171.21404,3.51595,171.21458,174.2187
17,17,2,21,1,1.5,4,1,1.0,16.0,175.20811,176.20801,176.22473,176.22493,177.74158,177.74173,3.0,1.1691717,178.9109,181.25848,3.517103,181.25896,182.26392
18,18,2,23,5,4.5,7,1,1.0,17.0,183.2648,184.24818,184.26468,184.2649,188.78145,188.7816,3.0,1.2551069,190.03671,192.29771,3.516457,192.29819,197.30234
19,19,1,19,1,1.5,6,9,1.0,18.0,198.29422,199.29378,199.31038,199.31065,200.82773,200.82788,3.0,1.7187904,202.54666,204.3449,3.5173924,204.34538,205.34964
20,20,3,19,8,1.5,0,9,1.0,19.0,206.351,207.33382,207.35066,207.3508,208.86717,208.86737,3.0,1.1859609,210.05333,212.38464,3.5176456,212.38513,220.38956
21,21,2,19,5,4.5,1,6,1.0,20.0,221.37993,222.3796,222.39609,222.39635,226.91351,226.91367,2.0,0.9705143,227.88419,230.43053,3.5172145,230.431,235.43454
22,22,3,21,1,4.5,7,0,1.0,21.0,236.4256,237.42538,237.4419,237.44212,241.95854,241.95874,2.0,1.5549912,243.51373,245.47649,3.518122,245.47699,246.4805
23,23,2,25,1,1.5,11,2,1.0,22.0,247.46764,248.46759,248.48428,248.48448,250.00145,250.00162,3.0,2.5863156,252.58792,253.51846,3.5172029,253.51894,254.5237
24,24,1,21,3,3,4,9,1.0,23.0,255.52444,256.5075,256.52417,256.52438,259.5407,259.5409,3.0,1.3540082,260.8949,263.0573,3.5167978,263.0578,266.06305
25,25,1,17,3,3,8,3,1.0,24.0,267.05063,268.05038,268.0669,268.06738,271.0838,271.08395,2.0,1.1867355,272.2707,274.6011,3.5175245,274.60162,277.60638
26,26,1,15,1,1.5,7,5,1.0,25.0,278.5936,279.59302,279.6097,279.61,281.12634,281.1265,2.0,1.6697093,282.7962,284.64334,3.5172632,284.64392,285.6483
27,27,3,17,5,1.5,0,1,1.0,26.0,286.63333,287.6331,287.6495,287.6497,289.16632,289.16653,2.0,1.5694687,290.736,292.68347,3.5173042,292.68393,297.68777
28,28,1,25,5,3,2,11,1.0,27.0,298.67645,299.67654,299.69272,299.69293,302.71033,302.71048,3.0,1.2530853,303.96356,306.22586,3.5157657,306.22638,311.2303
29,29,2,21,1,1.5,1,9,1.0,28.0,312.221,313.22086,313.23746,313.2377,314.7542,314.75436,2.0,1.0854232,315.83978,318.2712,3.5171986,318.27167,319.27515
30,30,1,21,1,1.5,4,7,1.0,29.0,320.26068,321.26083,321.2774,321.27762,322.7942,322.79434,3.0,1.2523687,324.04672,326.31116,3.5171745,326.31165,327.3151
31,31,2,25,1,1.5,2,5,1.0,30.0,328.30063,329.30057,329.3178,329.3181,330.83313,330.83328,2.0,0.83609474,331.66937,334.35013,3.5172005,334.35062,335.35547
32,32,2,17,3,1.5,3,1,1.0,31.0,336.34085,337.34055,337.35712,337.35733,338.87384,338.87402,3.0,0.8853265,339.75934,342.3911,3.5174694,342.3916,345.3961
33,33,1,23,1,3,7,1,1.0,32.0,346.38266,347.3822,347.39883,347.39905,350.41608,350.41623,2.0,0.98638767,351.40262,353.9333,3.5174162,353.93375,354.9372
34,34,3,15,1,4.5,5,0,1.0,33.0,355.92325,356.9231,356.93988,356.94006,361.457,361.45718,2.0,1.5213261,362.97852,364.97382,3.516991,364.9743,365.97903
35,35,1,25,5,3,8,5,1.0,34.0,366.96628,367.9658,367.98212,367.9824,370.999,370.99924,2.0,1.220353,372.2196,374.516,3.517082,374.51645,379.52094
36,36,1,19,1,1.5,4,9,1.0,35.0,380.51053,381.5101,381.5268,381.52698,383.04395,383.0441,3.0,1.5522178,384.5963,386.5608,3.5170465,386.56128,387.56595
