TrialNumber,Trial,ISI,ITI,winlose,door_image_L,door_image_R,ran,order,decision_onset,resp,rt,resp_onset,resp_offset,trialDuration,pre_feedback_fix_onset,pre_feedback_fix_duration,arrow_onset,arrow_offset,ITIonset,ITIoffset,Date_Time
1,1,2,6,loss,obj (1).bmp,obj (61).bmp,1.0,0.0,4.0161633,999.0,999.0,999.0,7.0180006,3.0024881,7.018814,2.0,9.035362,12.040573,12.040855,18.043892,2019-11-06 16:44:29.601461
2,2,2,4,win,obj (2).bmp,obj (62).bmp,1.0,1.0,18.104904,999.0,999.0,999.0,21.116476,3.011906,21.116926,2.0,23.13322,26.13908,26.139332,30.14903,2019-11-06 16:44:41.706649
3,3,4,2,loss,obj (3).bmp,obj (63).bmp,1.0,2.0,30.16332,999.0,999.0,999.0,33.164997,3.0020368,33.165474,2.0,35.18241,38.18546,38.18567,40.189312,2019-11-06 16:44:51.746940
4,4,4,6,loss,obj (4).bmp,obj (64).bmp,1.0,3.0,40.203533,999.0,999.0,999.0,43.214,3.0108,43.21449,2.0,45.231396,48.234882,48.235096,54.23895,2019-11-06 16:45:05.796588
5,5,2,4,loss,obj (5).bmp,obj (65).bmp,1.0,4.0,54.253914,999.0,999.0,999.0,57.262424,3.0088873,57.262928,2.0,59.279934,62.283394,62.28363,66.28714,2019-11-06 16:45:17.844815
6,6,2,2,win,obj (6).bmp,obj (66).bmp,1.0,5.0,66.302635,999.0,999.0,999.0,69.31101,3.0087514,69.311516,2.0,71.328354,74.33386,74.334114,76.3452,2019-11-06 16:45:27.902844
7,7,6,4,win,obj (7).bmp,obj (67).bmp,1.0,6.0,76.36095,999.0,999.0,999.0,79.37937,3.0188677,79.38005,2.0,81.39367,84.39903,84.39928,88.40943,2019-11-06 16:45:39.967159
8,8,2,4,loss,obj (8).bmp,obj (68).bmp,1.0,7.0,88.423744,999.0,999.0,999.0,91.42494,3.0015562,91.42542,2.0,93.4418,96.4452,96.44543,100.449036,2019-11-06 16:45:52.006838
9,9,8,2,win,obj (9).bmp,obj (69).bmp,1.0,8.0,100.46367,999.0,999.0,999.0,103.47402,3.0107915,103.47463,2.0,105.491,108.49638,108.49661,110.50787,2019-11-06 16:46:02.065708
10,10,2,4,win,obj (10).bmp,obj (70).bmp,1.0,9.0,110.52236,999.0,999.0,999.0,113.5232,3.0012023,113.523735,2.0,115.539406,118.54475,118.54504,122.555374,2019-11-06 16:46:14.113233
11,11,4,2,win,obj (11).bmp,obj (71).bmp,1.0,10.0,122.571754,999.0,999.0,999.0,125.58811,3.0167148,125.588585,2.0,127.604385,130.60986,130.61015,132.62097,2019-11-06 16:46:24.178766
12,12,6,4,loss,obj (12).bmp,obj (72).bmp,1.0,11.0,132.63518,999.0,999.0,999.0,135.63655,3.00172,135.63702,2.0,137.65285,140.65587,140.65608,144.65886,2019-11-06 16:46:36.216696
13,13,2,4,win,obj (13).bmp,obj (73).bmp,1.0,12.0,144.6736,999.0,999.0,999.0,147.68498,3.0118518,147.68556,2.0,149.70337,152.70924,152.70947,156.71855,2019-11-06 16:46:48.276341
14,14,2,2,loss,obj (14).bmp,obj (74).bmp,1.0,13.0,156.73357,999.0,999.0,999.0,159.73598,3.0027752,159.7365,2.0,161.75246,164.75552,164.75574,166.7589,2019-11-06 16:46:58.316819
15,15,8,2,loss,obj (15).bmp,obj (75).bmp,1.0,14.0,166.77374,999.0,999.0,999.0,169.78299,3.0097444,169.78362,2.0,171.80055,174.80359,174.8038,176.8073,2019-11-06 16:47:08.365201
16,16,2,4,win,obj (16).bmp,obj (76).bmp,1.0,15.0,176.82152,999.0,999.0,999.0,179.83179,3.0106504,179.83228,2.0,181.84949,184.85522,184.85559,188.86449,2019-11-06 16:47:20.422421
17,17,2,2,loss,obj (17).bmp,obj (77).bmp,1.0,16.0,188.8794,999.0,999.0,999.0,191.8804,3.0013785,191.88097,2.0,193.89783,196.90057,196.90083,198.90428,2019-11-06 16:47:30.462033
18,18,4,4,win,obj (18).bmp,obj (78).bmp,1.0,17.0,198.91916,999.0,999.0,999.0,201.92921,3.0104284,201.92969,2.0,203.94629,206.9514,206.95164,210.9613,2019-11-06 16:47:42.519294
19,19,2,2,win,obj (19).bmp,obj (79).bmp,1.0,18.0,210.97565,999.0,999.0,999.0,213.97783,3.0025232,213.97829,2.0,215.99504,219.00063,219.00085,221.01044,2019-11-06 16:47:52.568423
20,20,2,2,win,obj (20).bmp,obj (80).bmp,1.0,19.0,221.02487,999.0,999.0,999.0,224.0277,3.00325,224.02823,2.0,226.04338,229.0493,229.04964,231.05946,2019-11-06 16:48:02.617550
21,21,2,2,win,obj (21).bmp,obj (81).bmp,1.0,20.0,231.07411,999.0,999.0,999.0,234.07574,3.0020142,234.07623,2.0,236.09335,239.09862,239.09885,241.10838,2019-11-06 16:48:12.666495
22,22,2,2,loss,obj (22).bmp,obj (82).bmp,1.0,21.0,241.12387,999.0,999.0,999.0,244.12799,3.004461,244.12845,2.0,246.14105,249.14468,249.1449,251.14787,2019-11-06 16:48:22.705909
23,23,4,6,loss,obj (23).bmp,obj (83).bmp,1.0,22.0,251.16237,999.0,999.0,999.0,254.17337,3.0113494,254.17383,2.0,256.19012,259.19293,259.19315,265.19675,2019-11-06 16:48:36.754717
24,24,4,6,win,obj (24).bmp,obj (84).bmp,1.0,23.0,265.21198,999.0,999.0,999.0,268.22183,3.0102425,268.22232,2.0,270.23938,273.246,273.24625,279.25494,2019-11-06 16:48:50.813026
25,25,2,2,loss,obj (25).bmp,obj (85).bmp,1.0,24.0,279.27008,999.0,999.0,999.0,282.27023,3.0005262,282.2707,2.0,284.28748,287.29086,287.29108,289.29425,2019-11-06 16:49:00.852462
26,26,4,8,loss,obj (26).bmp,obj (86).bmp,1.0,25.0,289.3089,999.0,999.0,999.0,292.31897,3.0104287,292.31946,2.0,294.33575,297.33838,297.3386,305.3415,2019-11-06 16:49:16.899660
27,27,6,2,loss,obj (27).bmp,obj (87).bmp,1.0,26.0,305.35666,999.0,999.0,999.0,308.3671,3.0107875,308.36755,2.0,310.38394,313.38675,313.387,315.3899,2019-11-06 16:49:26.948083
28,28,6,2,loss,obj (28).bmp,obj (88).bmp,1.0,27.0,315.40424,999.0,999.0,999.0,318.41586,3.011984,318.41632,2.0,320.43286,323.43655,323.43674,325.43997,2019-11-06 16:49:36.998156
29,29,2,4,win,obj (29).bmp,obj (89).bmp,1.0,28.0,325.45428,999.0,999.0,999.0,328.46497,3.0110323,328.46542,2.0,330.48132,333.48663,333.48688,337.49756,2019-11-06 16:49:49.055736
30,30,4,2,win,obj (30).bmp,obj (90).bmp,1.0,29.0,337.51266,999.0,999.0,999.0,340.5132,3.000937,340.51373,2.0,342.53012,345.53583,345.53616,347.547,2019-11-06 16:49:59.105227
31,31,6,2,loss,obj (31).bmp,obj (91).bmp,1.0,30.0,347.5621,999.0,999.0,999.0,350.56238,3.0006213,350.56287,2.0,352.5791,355.58298,355.58316,357.5864,2019-11-06 16:50:09.144628
32,32,2,7,win,obj (32).bmp,obj (92).bmp,1.0,31.0,357.6009,999.0,999.0,999.0,360.61133,3.0107865,360.6118,2.0,362.62872,365.6352,365.63544,372.64395,2019-11-06 16:50:24.202235
33,33,4,6,loss,obj (33).bmp,obj (93).bmp,1.0,32.0,372.65945,999.0,999.0,999.0,375.67618,3.0170794,375.6767,2.0,377.69388,380.69678,380.697,386.70047,2019-11-06 16:50:38.258731
34,34,2,2,loss,obj (34).bmp,obj (94).bmp,1.0,33.0,386.71558,999.0,999.0,999.0,389.7246,3.0093608,389.72507,2.0,391.74133,394.74484,394.74506,396.74808,2019-11-06 16:50:48.306392
35,35,6,2,loss,obj (35).bmp,obj (95).bmp,1.0,34.0,396.7629,999.0,999.0,999.0,399.77356,3.0110164,399.77402,2.0,401.79092,404.79443,404.79468,406.7978,2019-11-06 16:50:58.356232
36,36,4,8,win,obj (36).bmp,obj (96).bmp,1.0,35.0,406.81226,999.0,999.0,999.0,409.82245,3.010625,409.823,2.0,411.83978,414.84592,414.84622,422.85498,2019-11-06 16:51:14.413460
37,37,3,8,win,obj (37).bmp,obj (97).bmp,1.0,36.0,422.87042,999.0,999.0,999.0,425.87057,3.0004985,425.87106,2.0,427.8882,430.89383,430.8941,438.90356,2019-11-06 16:51:30.461997
38,38,6,7,loss,obj (38).bmp,obj (98).bmp,1.0,37.0,438.91965,999.0,999.0,999.0,441.9353,3.0160015,441.93576,2.0,443.95242,446.9559,446.95612,453.95975,2019-11-06 16:51:45.518219
39,39,2,8,win,obj (39).bmp,obj (99).bmp,1.0,38.0,453.9748,999.0,999.0,999.0,456.9838,3.009362,456.9843,2.0,459.0001,462.00635,462.00656,470.01627,2019-11-06 16:52:01.574776
40,40,2,6,win,obj (40).bmp,obj (100).bmp,1.0,39.0,470.03174,999.0,999.0,999.0,473.03186,3.0005043,473.0324,2.0,475.04947,478.05563,478.05588,484.06506,2019-11-06 16:52:15.623485
41,41,2,6,win,obj (41).bmp,obj (101).bmp,1.0,40.0,484.08066,999.0,999.0,999.0,487.0973,3.0170627,487.09784,2.0,489.1129,492.1183,492.11853,498.12927,2019-11-06 16:52:29.687737
42,42,4,8,loss,obj (42).bmp,obj (102).bmp,1.0,41.0,498.14474,999.0,999.0,999.0,501.14523,3.0008326,501.1457,2.0,503.1624,506.16528,506.1655,514.1685,2019-11-06 16:52:45.727068
43,43,3,8,win,obj (43).bmp,obj (103).bmp,1.0,42.0,514.1837,999.0,999.0,999.0,517.1936,3.0102746,517.1941,2.0,519.21045,522.2158,522.21606,530.22656,2019-11-06 16:53:01.785181
44,44,6,6,loss,obj (44).bmp,obj (104).bmp,1.0,43.0,530.2418,999.0,999.0,999.0,533.2586,3.0170996,533.25903,2.0,535.27515,538.278,538.27826,544.282,2019-11-06 16:53:15.840573
45,45,3,7,loss,obj (45).bmp,obj (105).bmp,1.0,44.0,544.2969,999.0,999.0,999.0,547.30646,3.0099273,547.30695,2.0,549.3243,552.3276,552.32776,559.331,2019-11-06 16:53:30.889616
46,46,3,7,win,obj (46).bmp,obj (106).bmp,1.0,45.0,559.3464,999.0,999.0,999.0,562.3549,3.008918,562.35547,2.0,564.3716,567.3772,567.3775,574.38745,2019-11-06 16:53:45.946085
47,47,6,6,loss,obj (47).bmp,obj (107).bmp,1.0,46.0,574.40265,999.0,999.0,999.0,577.4033,3.000976,577.40375,2.0,579.4199,582.42334,582.4235,588.42645,2019-11-06 16:53:59.985175
48,48,6,7,win,obj (48).bmp,obj (108).bmp,1.0,47.0,588.4422,999.0,999.0,999.0,591.4517,3.0098786,591.4522,2.0,593.4694,596.47455,596.4748,603.48346,2019-11-06 16:54:15.042164
49,49,5,7,win,obj (49).bmp,obj (109).bmp,1.0,48.0,603.4996,999.0,999.0,999.0,606.49963,3.0004678,606.5002,2.0,608.51636,611.5222,611.52246,618.5322,2019-11-06 16:54:30.090958
50,50,2,8,win,obj (50).bmp,obj (110).bmp,1.0,49.0,618.54816,999.0,999.0,999.0,621.5483,3.000445,621.5487,2.0,623.5654,626.57074,626.5709,634.5818,2019-11-06 16:54:46.140585
51,51,4,4,win,obj (51).bmp,obj (111).bmp,1.0,50.0,634.5973,999.0,999.0,999.0,637.6128,3.0158122,637.6132,2.0,639.6304,642.63605,642.6363,646.64545,2019-11-06 16:54:58.204367
52,52,3,6,loss,obj (52).bmp,obj (112).bmp,1.0,51.0,646.66046,999.0,999.0,999.0,649.6614,3.001309,649.66187,2.0,651.6792,654.6811,654.6813,660.68445,2019-11-06 16:55:12.243210
53,53,6,6,loss,obj (53).bmp,obj (113).bmp,1.0,52.0,660.70013,999.0,999.0,999.0,663.71014,3.0103705,663.71063,2.0,665.72687,668.73016,668.7304,674.73395,2019-11-06 16:55:26.292812
54,54,5,4,win,obj (54).bmp,obj (114).bmp,1.0,53.0,674.74945,999.0,999.0,999.0,677.7588,3.009695,677.7593,2.0,679.776,682.7822,682.7825,686.7915,2019-11-06 16:55:38.350334
55,55,5,6,loss,obj (55).bmp,obj (115).bmp,1.0,54.0,686.8066,999.0,999.0,999.0,689.80725,3.0010767,689.80774,2.0,691.8242,694.82697,694.8272,700.83093,2019-11-06 16:55:52.389838
56,56,5,7,loss,obj (56).bmp,obj (116).bmp,1.0,55.0,700.84644,999.0,999.0,999.0,703.85565,3.00963,703.8562,2.0,705.8722,708.8755,708.87573,715.8789,2019-11-06 16:56:07.437831
57,57,3,2,loss,obj (57).bmp,obj (117).bmp,1.0,56.0,715.8952,999.0,999.0,999.0,718.90356,3.0087502,718.9041,2.0,720.92114,723.92413,723.9243,725.9276,2019-11-06 16:56:17.486578
58,58,4,6,loss,obj (58).bmp,obj (118).bmp,1.0,57.0,725.94226,999.0,999.0,999.0,728.95245,3.0105226,728.95294,2.0,730.97,733.973,733.97327,739.9762,2019-11-06 16:56:31.535208
59,59,4,7,win,obj (59).bmp,obj (119).bmp,1.0,58.0,739.99133,999.0,999.0,999.0,743.0012,3.0102375,743.0017,2.0,745.0172,748.0228,748.0231,755.0332,2019-11-06 16:56:46.592204
60,60,4,8,win,obj (60).bmp,obj (120).bmp,1.0,59.0,755.04865,999.0,999.0,999.0,758.04944,3.0011868,758.0499,2.0,760.06665,763.0731,763.07336,771.0823,2019-11-06 16:57:02.641452
