onset	duration	trial_type	rt	resp	gender
0.6156389778479934	3.006844048621133	decision	2.05084948358126	right	o
4.168418783927336	1.0010813064873219	win	n/a	n/a	n/a
11.090702363289893	3.005760327447206	decision	1.800012618303299	right	o
14.643726686248556	1.0011015320196748	loss	n/a	n/a	n/a
17.362833603052422	3.005590976914391	decision	1.800362790003419	right	o
20.915703065227717	1.000578387407586	win	n/a	n/a	n/a
23.634435358457267	3.006551534635946	decision	1.8009085753001273	left	o
27.1873286687769	1.0007410964462906	win	n/a	n/a	n/a
32.00802587904036	3.0056407859083265	decision	2.3177604456432164	left	o
35.56099737412296	1.0004362054169178	loss	n/a	n/a	n/a
42.483280651737005	3.0049830060452223	decision	2.317037763306871	right	o
46.03606408042833	1.0007435113657266	loss	n/a	n/a	n/a
50.85689864261076	3.005329857347533	decision	1.8003652051556855	right	o
54.40942095173523	1.0012099042069167	win	n/a	n/a	n/a
59.230355735402554	3.0058523984625936	decision	1.549865833017975	left	o
62.78299939725548	1.0007347571663558	loss	n/a	n/a	n/a
65.5024148277007	3.0051321308128536	decision	1.8002311736345291	right	o
69.05531628825702	1.0005017118528485	win	n/a	n/a	n/a
71.77403801609762	3.006126498337835	decision	1.5501052176114172	left	o
75.32668047049083	1.0010444780346006	win	n/a	n/a	n/a
78.04578708531335	3.005414683604613	decision	2.062338441843167	left	o
81.59872477082536	1.001010064734146	loss	n/a	n/a	n/a
86.41936341789551	3.0067226961255074	decision	2.0629349413793534	left	o
89.97234728978947	1.000774000538513	loss	n/a	n/a	n/a
92.69095460791141	3.0051100943237543	decision	1.5501360085327178	left	o
96.24404473882169	1.0005714441649616	win	n/a	n/a	n/a
103.16628847108223	3.0057313474826515	decision	2.319058496505022	right	o
106.71936864033341	1.001058062305674	win	n/a	n/a	n/a
109.4380447852891	3.006946987239644	decision	2.063970967195928	right	o
112.99085236364044	1.0008657698053867	win	n/a	n/a	n/a
119.91362165566534	3.005627201637253	decision	2.0671665873378515	left	o
123.4668889855966	1.0001530493609607	win	n/a	n/a	n/a
128.2867780837696	3.005135451676324	decision	2.068123522680253	right	o
131.8397423340939	1.0009068243671209	win	n/a	n/a	n/a
136.66047124098986	3.0053461582865566	decision	2.0673839352093637	left	o
140.21315112733282	1.0010891552083194	win	n/a	n/a	n/a
145.03406477998942	3.0058083250187337	decision	2.31777070928365	right	o
148.58678662683815	1.0008911269251257	win	n/a	n/a	n/a
161.81442822841927	3.006341129541397	decision	2.050890840124339	right	o
165.36737074377015	1.0008648640941828	loss	n/a	n/a	n/a
172.28987861424685	3.005828550318256	decision	1.8004699547309428	right	o
175.84278611233458	1.0009050131775439	win	n/a	n/a	n/a
182.7650642581284	3.006557873915881	decision	1.550644965376705	left	o
186.31781417899765	1.0008555061649531	loss	n/a	n/a	n/a
191.13865145808086	3.005160808796063	decision	1.5502682286314666	right	o
194.6914626590442	1.0008781463839114	loss	n/a	n/a	n/a
197.41015057708137	3.005439436994493	decision	1.8014643220230937	left	o
200.9633650793694	1.0006589873228222	loss	n/a	n/a	n/a
203.68239743378945	3.005184052977711	decision	1.551299122394994	left	o
207.234889857471	1.0004271492362022	win	n/a	n/a	n/a
214.15752149559557	3.006018428131938	decision	1.2992272975388914	left	o
217.71022704127245	1.0007513600867242	loss	n/a	n/a	n/a
224.6329127147328	3.0060166167095304	decision	1.8007709213998169	left	o
228.1854935870506	1.0006770994514227	win	n/a	n/a	n/a
233.006083330838	3.0058837928809226	decision	1.30038256268017	right	o
236.5593053798657	1.0004217156674713	loss	n/a	n/a	n/a
239.27785141789354	3.0055405641905963	decision	1.5505764402914792	left	o
242.83110123942606	1.0004694112576544	win	n/a	n/a	n/a
247.6515593668446	3.005812249146402	decision	2.3178307816851884	left	o
251.20443214965053	1.0009294648189098	loss	n/a	n/a	n/a
253.92353453836404	3.005625994177535	decision	1.5505009721964598	left	o
257.47640883061104	1.0011374547611922	loss	n/a	n/a	n/a
260.1954393738415	3.0058856040704995	decision	1.8008231453131884	left	o
263.74823306594044	1.0008298470638692	loss	n/a	n/a	n/a
266.4670356956776	3.005352497799322	decision	2.0672586583532393	right	o
270.02016929606907	1.000448280479759	win	n/a	n/a	n/a
276.94248064793646	3.0057325549423695	decision	1.8007597520481795	left	o
280.4951273284387	1.00079784845002	loss	n/a	n/a	n/a
283.2142943176441	3.0062605298589915	decision	1.8009511393029243	left	o
286.7673427902628	1.0006819295231253	loss	n/a	n/a	n/a
291.58764364221133	3.00556350662373	decision	1.5502972083631903	left	o
295.1408403341193	1.0007359646260738	win	n/a	n/a	n/a
302.11290235444903	3.005789910675958	decision	1.8002366074360907	right	o
305.6659903721884	1.0011878674849868	loss	n/a	n/a	n/a
312.5881507876329	3.0062457381282	decision	1.550648587755859	left	o
316.1412415225059	1.000562387984246	win	n/a	n/a	n/a
318.85992732737213	3.006128611508757	decision	1.5504273152910173	left	o
322.4130053834524	1.0007009473629296	loss	n/a	n/a	n/a
325.1318164654076	3.0052124289795756	decision	1.550245286198333	left	o
328.6849017662462	1.000555746955797	loss	n/a	n/a	n/a
335.6071017270442	3.005889830645174	decision	1.2998865866102278	left	o
339.15980908391066	1.0010158002842218	loss	n/a	n/a	n/a
341.87901109061204	3.005929979495704	decision	1.5506597571074963	left	o
345.43162486702204	1.0010794952977449	loss	n/a	n/a	n/a
350.25241837464273	3.005950808757916	decision	1.54996243189089	left	o
353.80585958296433	1.0003537943121046	win	n/a	n/a	n/a
362.829607876949	3.0062233994249254	decision	1.5502796999644488	right	o
366.3822642173618	1.000794829800725	loss	n/a	n/a	n/a
369.10138049232773	3.0057280268520117	decision	1.8013942877296358	left	o
372.65463544544764	1.0002919104881585	win	n/a	n/a	n/a
375.3732379337307	3.006280453177169	decision	1.5506147779524326	right	o
378.92674766713753	1.000212820013985	loss	n/a	n/a	n/a
381.6451958985999	3.006601645378396	decision	2.0639229693915695	left	o
385.198296595132	1.0006200456991792	loss	n/a	n/a	n/a
390.0187169883866	3.005024966550991	decision	1.550103104673326	left	o
393.57140925177373	1.000901088817045	loss	n/a	n/a	n/a
400.493701887317	3.004988439846784	decision	1.551055209711194	left	o
404.0466404783074	1.000746832229197	loss	n/a	n/a	n/a
410.96923347678967	3.0053730253130198	decision	2.0672701296862215	right	o
414.52192423073575	1.001180320745334	loss	n/a	n/a	n/a
421.4442998813465	3.005248955450952	decision	2.318266685353592	left	o
424.99712798697874	1.0013309549540281	win	n/a	n/a	n/a
429.8177566723898	3.0058155697770417	decision	2.0679200605954975	left	o
433.37085435003974	1.0007154373452067	win	n/a	n/a	n/a
436.0902685727924	3.0055287913419306	decision	1.8001520833931863	right	o
439.6425065184012	1.0009348983876407	loss	n/a	n/a	n/a
444.46319587994367	3.0063148667104542	decision	1.8004340319894254	right	o
448.01632072613575	1.0006529497914016	win	n/a	n/a	n/a
452.8369681276381	3.0055004151072353	decision	1.3005111601669341	left	o
456.38965767389163	1.001289296662435	win	n/a	n/a	n/a
459.10838574101217	3.006059180945158	decision	1.8008035237435251	left	o
462.6612090168055	1.0008530910126865	win	n/a	n/a	n/a
465.38007685076445	3.0055085658095777	decision	1.5505679878406227	left	o
468.93320079147816	1.000540351262316	win	n/a	n/a	n/a
471.6522560880985	3.006144610699266	decision	1.5503343385644257	right	o
475.2049405025318	1.0012693731114268	win	n/a	n/a	n/a
482.1274133559782	3.005423135822639	decision	2.0673585780896246	right	o
485.68036160687916	1.001030592015013	win	n/a	n/a	n/a
492.6030771655496	3.006229134975001	decision	1.54989692568779	left	o
496.15514515689574	1.0009958767332137	loss	n/a	n/a	n/a
