onset	duration	trial_type	rt	resp	gender
0.609281848883256	3.00614249752834	decision	2.5676267915405333	left	M
4.16192913311534	1.00050231558271	win	n/a	n/a	n/a
11.0840928691905	3.06826872308739	decision-missed	n/a	n/a	M
14.7036927132867	1.00086003425531	loss	n/a	n/a	n/a
17.4221717356704	3.00526918121614	decision	2.0642031070310622	right	M
20.9751263260841	1.00099044293165	win	n/a	n/a	n/a
23.6944530059118	3.00593028147705	decision	1.5505233106669039	left	F
27.2471739470493	1.0005400495138	win	n/a	n/a	n/a
32.0679864725098	3.00635169516318	decision	1.5509241970721632	right	F
35.6209564581513	1.00055876583792	loss	n/a	n/a	n/a
42.5433547492139	3.00591096142307	decision	1.8009327249601483	left	M
46.0958978876006	1.00113685103133	loss	n/a	n/a	n/a
50.9164731414057	3.00566131318919	decision	1.5507636009715497	right	M
54.4694229017477	1.00091467308812	win	n/a	n/a	n/a
59.2903365544043	3.00589466048405	decision	1.549869455397129	left	F
62.8429687451571	1.00074320961721	loss	n/a	n/a	n/a
65.5789294943679	3.00623819115572	decision	1.550256757531315	right	F
69.1313473556656	1.00068072206341	win	n/a	n/a	n/a
71.8676600882318	3.00646640663035	decision	1.8004750865511596	right	F
75.4201048160903	1.0007263047155	win	n/a	n/a	n/a
78.1387957530096	3.00537604372948	decision	1.8013523274566978	right	F
81.692150022136	1.00094938836992	loss	n/a	n/a	n/a
86.5135098421015	3.00656934501603	decision	1.8005577996373177	right	M
90.0652892435901	1.00070215482265	loss	n/a	n/a	n/a
92.7846201495267	3.00592031958513	decision	1.5514467381872237	right	M
96.3374117286876	1.00087995780632	win	n/a	n/a	n/a
103.260588548379	3.00643470999785	decision	1.5491845069918782	left	M
106.812478434993	1.00074200215749	win	n/a	n/a	n/a
109.531556372065	3.00651048007421	decision	1.5508478234987706	left	F
113.084757290082	1.00062789442018	win	n/a	n/a	n/a
120.006742015947	3.00517107266933	decision	1.5501779688056558	right	M
123.559648306808	1.00062759243883	win	n/a	n/a	n/a
128.397027282277	3.00626566167921	decision	1.8008768786676228	right	F
131.949907913804	1.00078758480959	win	n/a	n/a	n/a
136.770452074939	3.00527038844302	decision	1.8003953923471272	left	M
140.323577524861	1.00120899872854	win	n/a	n/a	n/a
145.160902465461	3.00590401841328	decision	1.549614675110206	right	F
148.713269310305	1.00116190640256	win	n/a	n/a	n/a
161.941092638997	3.00646187830716	decision	1.3006500215269625	left	M
165.494182467926	1.00061491387896	loss	n/a	n/a	n/a
172.433779027779	3.00595231796615	decision	1.549534980673343	left	M
175.986193568446	1.00043590343557	win	n/a	n/a	n/a
182.908272780245	3.00550373597071	decision	1.8014365499839187	left	M
186.461512639886	1.00108281592838	loss	n/a	n/a	n/a
191.282027821289	3.00644829403609	decision	1.800616966560483	left	M
194.834754195996	1.0007540769875	loss	n/a	n/a	n/a
197.553666103398	3.0062194748316	decision	1.800679454114288	right	F
201.106860380154	1.00049869297072	loss	n/a	n/a	n/a
203.842237912118	3.00632362114266	decision	1.5503252826165408	left	F
207.395091677085	1.00066442089155	win	n/a	n/a	n/a
214.31707398803	3.00642354064621	decision	1.5514554923865944	left	M
217.87047112314	1.00095814256929	loss	n/a	n/a	n/a
224.792687686859	3.00579474074766	decision	1.5502461919095367	right	M
228.345830645412	1.00061008404009	win	n/a	n/a	n/a
233.183110908838	3.0063064142596	decision	1.5498658327851444	left	F
236.735692686867	1.00104779866524	loss	n/a	n/a	n/a
239.471363035031	3.00506571913138	decision	1.300035409629345	right	F
243.024076127447	1.00139404623769	win	n/a	n/a	n/a
247.861993944971	3.00539355259389	decision	1.8003615827765316	right	F
251.414823862026	1.00020165066235	loss	n/a	n/a	n/a
254.166785956593	3.00557075138204	decision	2.0635407990776002	right	M
257.719505086308	1.00073837977834	loss	n/a	n/a	n/a
260.43935159035	3.00526646431535	decision	1.5501311786938459	left	M
263.991794205271	1.00050895661116	loss	n/a	n/a	n/a
266.710561817512	3.00650263135321	decision	2.067736220313236	right	M
270.263465089491	1.00094878464006	win	n/a	n/a	n/a
277.202535485849	3.00572289503179	decision	1.80054995091632	right	F
280.75515650725	1.00091286189854	loss	n/a	n/a	n/a
283.491524180397	3.00567701063119	decision	1.8006821710150689	right	F
287.043503119377	1.00220095110126	loss	n/a	n/a	n/a
291.864832752151	3.0053204994183	decision	1.5503506397362798	left	F
295.41725725471	1.00152204022743	win	n/a	n/a	n/a
302.339508835692	3.00563444639556	decision	2.0516234843526036	left	M
305.892508404795	1.00074592651799	loss	n/a	n/a	n/a
312.831849882612	3.00590552785434	decision	2.063934440491721	right	F
316.384800850414	1.00046639260836	win	n/a	n/a	n/a
319.12019347609	3.00556682702154	decision	1.8013970046304166	left	F
322.673040297814	1.00057446304709	loss	n/a	n/a	n/a
325.392178609502	3.00666684960015	decision	1.8008424651343375	left	M
328.944875400746	1.00075377500616	loss	n/a	n/a	n/a
335.867513076402	3.00596288358793	decision	1.8002190988045186	left	M
339.420029046247	1.00066864700057	loss	n/a	n/a	n/a
342.139374442166	3.00653825211339	decision	1.5506238341331482	right	F
345.691893128678	1.00062849815004	loss	n/a	n/a	n/a
350.51284481748	3.0050708509516	decision	2.0640527745708823	left	F
354.065429312177	1.00077973632142	win	n/a	n/a	n/a
363.106355045922	3.00548411416821	decision	1.8004986327141523	right	F
366.659552039579	1.00050895684399	loss	n/a	n/a	n/a
369.378111963859	3.00572863058187	decision	1.8007193012163043	right	M
372.931094628293	1.0004301678855	win	n/a	n/a	n/a
375.649952802341	3.00584243657067	decision	1.5498238725122064	left	M
379.202902864432	1.00066774152219	loss	n/a	n/a	n/a
381.921543992357	3.00525167235173	decision	1.5512650108430535	right	M
385.474299045047	1.00103089376353	loss	n/a	n/a	n/a
390.295385670615	3.00634565763175	decision	1.8006495686713606	left	F
393.847955977311	1.00105383619666	loss	n/a	n/a	n/a
400.787411864614	3.00574915809557	decision	1.5508448048494756	right	F
404.339999679942	1.00132823828608	loss	n/a	n/a	n/a
411.263209101744	3.00527582224458	decision	1.550411919830367	left	M
414.815459122183	1.00052163540386	loss	n/a	n/a	n/a
421.754966629436	3.00509771774523	decision	1.5510449460707605	right	F
425.307594292099	1.00038488721475	win	n/a	n/a	n/a
430.144429595675	3.005542375613	decision	1.5511306778062135	right	F
433.697589157149	1.00098500936292	win	n/a	n/a	n/a
436.433049100451	3.0055097732693	decision	1.300483388127759	right	F
439.986042028526	1.00081686652265	loss	n/a	n/a	n/a
444.806540003046	3.00598673149943	decision	1.3009515921585262	left	M
448.359768693335	1.00127329747193	win	n/a	n/a	n/a
453.180263347458	3.00522782444023	decision	2.0681860100012273	right	F
456.733361327089	1.00088629685342	win	n/a	n/a	n/a
459.468540830771	3.00587473693304	decision	1.301900376798585	left	F
463.021621603752	1.0008660715539	win	n/a	n/a	n/a
465.741005639313	3.00656813755631	decision	1.5502630968112499	left	F
469.293516175356	1.00050201360136	win	n/a	n/a	n/a
472.012410272146	3.00597918475978	decision	2.067653205478564	right	M
475.565228416119	1.00068283523433	win	n/a	n/a	n/a
482.504203119082	3.00506662460975	decision	1.801155204884708	right	M
486.057861071778	1.00072600296699	win	n/a	n/a	n/a
492.97965863673	3.00563142774627	decision	2.317599849542603	left	M
496.532616245793	1.00058623589575	loss	n/a	n/a	n/a
