TrialNumber,nTrial,Block,Endowment,ITI,ISI,L_Option,R_Option,ran,order,cue_Onset,endowment_onset,endowment_offset,ISI_onset,ISI_offset,decision_onset,resp,rt,resp_onset,decision_offset,trialDuration,ITIonset,ITIoffset
1,1,3,21,1,1.5,0,4,1.0,0.0,4.9974623,5.99745,6.014073,6.0142884,7.5314026,7.5316353,3.0,1.2184806,8.750115,11.0482645,3.5170774,11.048856,12.053687
2,2,1,23,1,1.5,4,10,1.0,1.0,13.054238,14.053925,14.070586,14.070815,15.587675,15.5878315,2.0,0.9182564,16.506088,19.105642,3.5181472,19.106092,20.109589
3,3,2,17,5,1.5,3,1,1.0,2.0,21.110777,22.093872,22.110573,22.110777,23.627209,23.62736,2.0,2.120899,25.748259,27.144625,3.5176072,27.145082,32.149357
4,4,2,25,1,3,11,8,1.0,3.0,33.137424,34.13716,34.153805,34.154034,37.16986,37.170017,3.0,0.83807594,38.00809,40.68561,3.5159285,40.686058,41.689533
5,5,2,23,1,1.5,7,10,1.0,4.0,42.678703,43.67841,43.695114,43.69533,45.21158,45.211727,2.0,1.102636,46.314365,48.72859,3.5171986,48.72904,49.733692
6,6,3,23,1,3,0,7,1.0,5.0,50.718517,51.718117,51.734985,51.735134,54.75256,54.752747,3.0,0.80195075,55.5547,58.270565,3.518156,58.27102,59.274567
7,7,2,23,5,3,10,7,1.0,6.0,60.25984,61.259617,61.276318,61.27654,64.29255,64.2927,3.0,0.9205217,65.21322,67.80953,3.5171697,67.80998,72.81351
8,8,2,21,1,1.5,7,9,1.0,7.0,73.80406,74.804,74.82087,74.82108,76.33754,76.337685,2.0,0.90169895,77.23939,79.85554,3.5181923,79.85599,80.86045
9,9,3,25,8,1.5,0,2,1.0,8.0,81.86065,82.86051,82.87739,82.87755,84.393745,84.39393,3.0,1.269047,85.66298,87.91049,3.5168993,87.91094,95.914444
10,10,1,17,3,1.5,5,3,1.0,9.0,96.90664,97.90634,97.92306,97.92325,99.440506,99.44065,3.0,1.4523281,100.89298,102.95749,3.5171869,102.958015,105.96148
11,11,1,25,1,1.5,2,5,1.0,10.0,106.94829,107.94809,107.96468,107.96489,109.48148,109.48163,2.0,1.0185935,110.50023,112.99945,3.5181553,112.9999,114.00433
12,12,1,21,1,4.5,7,1,1.0,11.0,115.00484,116.004585,116.021225,116.02144,120.53843,120.53858,3.0,1.3377178,121.8763,124.05556,3.5173259,124.05602,125.060165
13,13,3,23,3,1.5,10,0,1.0,12.0,126.04705,127.04691,127.06382,127.06396,128.58041,128.5806,2.0,0.9851871,129.56578,132.09761,3.51736,132.09807,135.10341
14,14,2,25,5,3,5,11,1.0,13.0,136.08867,137.0887,137.10544,137.10565,140.12201,140.12216,2.0,1.2035403,141.3257,143.63939,3.5175607,143.63983,148.64337
15,15,2,19,1,4.5,6,4,1.0,14.0,149.63326,150.63318,150.64987,150.65009,155.16638,155.16653,3.0,1.4718478,156.63838,158.6841,3.5178955,158.68454,159.68938
16,16,3,23,3,4.5,4,0,1.0,15.0,160.67561,161.67549,161.69215,161.69232,166.20792,166.2081,2.0,1.6060983,167.8142,169.72546,3.5176983,169.72592,172.72995
17,17,3,23,8,3,0,1,1.0,16.0,173.71985,174.71957,174.73619,174.73633,177.75232,177.7525,3.0,1.3541834,179.10667,181.26933,3.5171695,181.26978,189.27429
18,18,1,17,1,4.5,1,5,1.0,17.0,190.26672,191.26637,191.28316,191.28336,195.79993,195.80008,2.0,1.2382071,197.03828,199.31628,3.5165555,199.31674,200.3202
19,19,2,15,1,4.5,3,1,1.0,18.0,201.30913,202.30875,202.32574,202.32593,206.84225,206.8424,3.0,2.105494,208.9479,210.35928,3.517226,210.35976,211.36469
20,20,1,19,3,1.5,6,1,1.0,19.0,212.35162,213.35141,213.36795,213.36813,214.88487,214.88503,3.0,1.6025199,216.48755,218.40303,3.5183408,218.40347,221.40826
21,21,2,23,1,1.5,10,1,1.0,20.0,222.39302,223.3929,223.4095,223.40973,224.92651,224.92667,3.0,1.1186787,226.04535,228.44423,3.5178943,228.44467,229.44923
22,22,1,25,1,3,11,5,1.0,21.0,230.4497,231.44922,231.46599,231.46619,234.48306,234.4832,3.0,2.5044057,236.98761,237.99948,3.5166264,237.99995,239.00426
23,23,2,21,5,1.5,9,1,1.0,22.0,239.99075,240.99074,241.00743,241.00764,242.5242,242.52435,3.0,1.6026258,244.12697,246.04121,3.517232,246.0417,251.04614
24,24,3,21,1,3,9,0,1.0,23.0,252.03412,253.034,253.05054,253.05067,256.06717,256.06735,2.0,1.1370745,257.20444,259.58316,3.5161335,259.5836,260.5879
25,25,1,23,1,1.5,4,7,1.0,24.0,261.57535,262.5753,262.59204,262.59225,264.10815,264.1083,2.0,1.0025272,265.11084,267.62512,3.5171776,267.62558,268.6301
26,26,2,21,3,4.5,9,4,1.0,25.0,269.61548,270.6151,270.63174,270.63196,275.14813,275.1483,3.0,1.0883492,276.23663,278.6651,3.5171618,278.66556,281.6691
27,27,2,19,1,3,1,9,1.0,26.0,282.65924,283.65924,283.676,283.6762,286.69214,286.6923,2.0,1.5548692,288.24716,290.20908,3.5171354,290.20953,291.21307
28,28,1,23,3,1.5,1,4,1.0,27.0,292.20068,293.2004,293.21716,293.21738,294.7331,294.73325,2.0,1.336541,296.06976,298.25006,3.5171733,298.25052,301.2551
29,29,3,19,8,3,1,0,1.0,28.0,302.24216,303.2421,303.2584,303.25854,306.27505,306.27524,2.0,1.7546439,308.02988,309.7919,3.5170295,309.7924,317.79645
30,30,1,25,5,3,11,8,1.0,29.0,318.7891,319.78885,319.80576,319.806,322.82202,322.82217,3.0,1.7542865,324.57648,326.33902,3.5171914,326.33948,331.34302
31,31,3,19,1,1.5,0,6,1.0,30.0,332.33356,333.33377,333.35,333.35016,334.866,334.86618,3.0,1.2869107,336.1531,338.383,3.517141,338.38345,339.38696
32,32,1,21,1,1.5,1,7,1.0,31.0,340.37372,341.37332,341.39005,341.39023,342.90704,342.9072,2.0,1.8529505,344.76016,346.42398,3.51712,346.42444,347.429
33,33,3,23,3,1.5,0,1,1.0,32.0,348.41342,349.41348,349.42987,349.43005,350.9476,350.94778,3.0,1.3348624,352.28265,354.46448,3.5170314,354.46494,357.46848
34,34,3,19,3,1.5,0,4,1.0,33.0,358.45502,359.4549,359.47168,359.47183,360.98798,360.98816,3.0,1.6030617,362.59122,364.50446,3.5166461,364.5049,367.50995
35,35,1,21,3,1.5,4,7,1.0,34.0,368.4967,369.49637,369.51324,369.51346,371.0299,371.03006,2.0,1.7526975,372.78275,374.54688,3.5171647,374.54733,377.55215
36,36,3,23,3,1.5,7,0,1.0,35.0,378.53833,379.53827,379.55493,379.55505,381.07193,381.0721,2.0,1.4522381,382.52435,384.58893,3.5171509,384.5894,387.59393
