TrialNumber,nTrial,Block,Endowment,ITI,ISI,L_Option,R_Option,ran,order,cue_Onset,endowment_onset,endowment_offset,ISI_onset,ISI_offset,decision_onset,resp,rt,resp_onset,decision_offset,trialDuration,ITIonset,ITIoffset
1,1,2,25,8,1.5,5,2,1.0,0.0,5.0049706,5.9878993,6.004778,6.00506,7.521218,7.521413,3.0,1.1026683,8.624082,11.038658,3.5176973,11.039251,19.043674
2,2,3,19,3,3,1,0,1.0,1.0,20.033932,21.03381,21.050129,21.050308,24.066639,24.066832,3.0,1.1038245,25.170656,27.583506,3.5170515,27.58401,30.588589
3,3,2,23,5,4.5,4,10,1.0,2.0,31.576782,32.57668,32.59316,32.593372,37.110123,37.110287,2.0,1.488235,38.59852,40.62753,3.5176044,40.62801,45.632572
4,4,3,21,3,1.5,7,0,1.0,3.0,46.6221,47.62231,47.639034,47.639217,49.155487,49.15568,2.0,1.6528478,50.808533,52.67201,3.516692,52.6725,55.67646
5,5,3,19,5,3,0,9,1.0,4.0,56.663963,57.66373,57.68064,57.680786,60.69746,60.69765,3.0,1.5868032,62.284454,64.21444,3.517153,64.21492,69.21844
6,6,1,21,3,1.5,1,9,1.0,5.0,70.20855,71.20802,71.22475,71.22494,72.74203,72.74219,3.0,1.5187464,74.26093,76.259415,3.5175798,76.25988,79.26336
7,7,1,21,1,1.5,4,7,1.0,6.0,80.250175,81.2496,81.26653,81.266785,82.783325,82.783485,3.0,1.1352283,83.91872,86.30034,3.5171983,86.300804,87.30434
8,8,2,17,1,1.5,8,1,1.0,7.0,88.28987,89.28974,89.306274,89.30652,90.823044,90.82323,3.0,1.5856972,92.40892,94.34129,3.5184357,94.34178,95.34529
9,9,1,25,3,3,8,5,1.0,8.0,96.32997,97.32951,97.34646,97.34665,100.36229,100.36244,2.0,1.287908,101.650345,103.87927,3.5171854,103.879745,106.88325
10,10,1,23,3,1.5,10,7,1.0,9.0,107.872765,108.87268,108.889465,108.88973,110.406235,110.40639,2.0,1.2018273,111.608215,113.92349,3.5174592,113.923965,116.9292
11,11,1,23,1,3,1,4,1.0,10.0,117.91441,118.91386,118.93061,118.93085,121.94718,121.947334,3.0,1.5706732,123.51801,125.46519,3.518207,125.46566,126.46918
12,12,2,25,5,1.5,2,8,1.0,11.0,127.45523,128.4552,128.47218,128.47244,129.98875,129.9889,2.0,1.2693881,131.25829,133.50513,3.5166094,133.50563,138.5101
13,13,3,21,1,1.5,4,0,1.0,12.0,139.4984,140.49857,140.51524,140.51543,142.03198,142.0322,3.0,1.8192793,143.85147,145.54912,3.5172865,145.54959,146.55412
14,14,2,19,3,1.5,4,6,1.0,13.0,147.55533,148.53848,148.55502,148.55527,150.0721,150.07225,2.0,2.486458,152.5587,153.58804,3.5162032,153.58858,156.59204
15,15,3,17,3,4.5,0,1,1.0,14.0,157.58022,158.57982,158.59682,158.59702,163.11285,163.11307,2.0,1.6723204,164.78539,166.62997,3.517283,166.63046,169.63498
16,16,3,23,3,1.5,7,0,1.0,15.0,170.62416,171.62405,171.64081,171.641,173.15817,173.15837,2.0,2.602324,175.7607,176.67494,3.5169182,176.67542,179.67996
17,17,1,21,1,1.5,1,9,1.0,16.0,180.66573,181.66519,181.68211,181.68231,183.19864,183.19882,3.0,2.0197346,185.21855,186.71625,3.5177824,186.71672,187.72147
18,18,1,25,1,1.5,11,8,1.0,17.0,188.72246,189.70557,189.72205,189.72227,191.23987,191.24002,2.0,1.2345077,192.47453,194.75786,3.5181923,194.75835,195.76285
19,19,1,17,3,4.5,5,8,1.0,18.0,196.76265,197.76204,197.77902,197.77931,202.2958,202.29596,3.0,1.7547574,204.05072,205.81342,3.5178306,205.8139,208.81839
20,20,3,23,1,4.5,1,0,1.0,19.0,209.80618,210.80598,210.82265,210.82289,215.3397,215.33992,3.0,1.7216272,217.06154,218.85713,3.5175736,218.8576,219.86176
21,21,3,25,1,1.5,8,0,1.0,20.0,220.84874,221.84831,221.86502,221.8652,223.38274,223.38292,3.0,1.4515605,224.83449,226.89972,3.5171454,226.90019,227.90424
22,22,3,15,1,1.5,0,3,1.0,21.0,228.90523,229.88824,229.90508,229.90526,231.42268,231.42288,2.0,1.8851708,233.30804,234.93967,3.517141,234.94014,235.94514
23,23,3,19,1,4.5,1,0,1.0,22.0,236.9451,237.9449,237.96187,237.96216,242.47865,242.47884,3.0,1.4713012,243.95013,245.99564,3.5171602,245.99612,247.00067
24,24,2,19,5,3,6,9,1.0,23.0,247.98753,248.98737,249.00403,249.00427,252.02063,252.0208,2.0,1.5209996,253.5418,255.53825,3.5179055,255.53885,260.5435
25,25,2,23,1,1.5,7,1,1.0,24.0,261.53183,262.5318,262.54865,262.5489,264.0651,264.06525,3.0,1.2026752,265.26794,267.58154,3.516631,267.582,268.58557
26,26,2,17,1,1.5,8,3,1.0,25.0,269.57224,270.572,270.58832,270.5886,272.10452,272.10468,3.0,1.7701393,273.87482,275.62082,3.516522,275.62134,276.6265
27,27,1,21,1,3,9,4,1.0,26.0,277.61218,278.61172,278.6284,278.62857,281.64548,281.64563,2.0,1.186273,282.8319,285.16345,3.5181699,285.1639,286.16745
28,28,3,17,5,1.5,3,0,1.0,27.0,287.15295,288.15308,288.16925,288.1694,289.6853,289.68552,3.0,2.638138,292.32364,293.20242,3.5172853,293.20294,298.20636
29,29,1,17,1,4.5,3,8,1.0,28.0,299.19635,300.19656,300.2127,300.21292,304.73044,304.7307,3.0,1.4870993,306.2178,308.2475,3.5171764,308.24802,309.25204
30,30,2,19,1,1.5,9,1,1.0,29.0,310.23883,311.23865,311.25528,311.2555,312.7723,312.7725,3.0,1.0687044,313.8412,316.2894,3.5173736,316.29004,317.29416
31,31,1,15,1,3,3,1,1.0,30.0,318.29547,319.2785,319.2954,319.29565,322.3123,322.31247,2.0,1.1027634,323.41525,325.8303,3.5181928,325.83078,326.8343
32,32,3,23,8,1.5,0,7,1.0,31.0,327.81992,328.81958,328.83627,328.83643,330.35303,330.35327,3.0,1.7193071,332.07257,333.86926,3.5163534,333.86972,341.8742
33,33,2,23,3,3,7,1,1.0,32.0,342.8654,343.86505,343.8817,343.88193,346.89917,346.89944,3.0,2.8375754,349.73703,350.41617,3.517072,350.41663,353.42093
34,34,2,15,1,1.5,1,5,1.0,33.0,354.40857,355.4079,355.42487,355.42508,356.94217,356.94232,2.0,0.81784844,357.76016,360.45914,3.517173,360.45963,361.4631
35,35,2,15,1,3,3,7,1.0,34.0,362.44843,363.44775,363.46478,363.4651,366.48212,366.48227,2.0,1.6029836,368.08524,370.00003,3.5181103,370.0005,371.00412
36,36,1,15,8,3,1,3,1.0,35.0,371.98965,372.9893,373.0056,373.00586,376.02203,376.0222,3.0,1.488091,377.51028,379.53833,3.5164733,379.5388,387.54352
