onset	duration	trial_type	rt	resp	gender
0.6157086638268083	3.005383897572756	decision	1.5511812877375633	right	o
4.168837029719725	1.000580501044169	win	n/a	n/a	n/a
11.107907069148496	3.005578906973824	decision	2.068052342161536	left	o
14.660514100920409	1.0008035849314183	loss	n/a	n/a	n/a
17.37950907065533	3.0066716857254505	decision	1.7999179509934038	right	o
20.932414956390858	1.0009681053925306	win	n/a	n/a	n/a
23.651308798696846	3.00616121920757	decision	1.8005890138447285	left	o
27.20437497878447	1.0008582237642258	win	n/a	n/a	n/a
32.02485347096808	3.006328758550808	decision	2.0495707974769175	left	o
35.57763649453409	1.0008334703743458	loss	n/a	n/a	n/a
42.51702531124465	3.0054355177562684	decision	1.5503991360310465	right	o
46.06969815143384	1.0008114336524159	loss	n/a	n/a	n/a
50.8905047790613	3.0058062172029167	decision	2.068091887747869	right	o
54.44315618625842	1.0010634972713888	win	n/a	n/a	n/a
59.26374727697112	3.006115636555478	decision	1.5515870044473559	right	o
62.81671444303356	1.0009068250656128	loss	n/a	n/a	n/a
65.53580420045182	3.0055481160525233	decision	1.8004003434907645	left	o
69.08865122124553	1.0006568746175617	win	n/a	n/a	n/a
71.80762294656597	3.0066713839769363	decision	1.8006629724986851	left	o
75.36049200384878	1.0007009482942522	win	n/a	n/a	n/a
78.26312904199585	3.0055188343394548	decision	1.550266311969608	right	o
81.81538529810496	1.0008319607004523	loss	n/a	n/a	n/a
86.63639629329555	3.006473053712398	decision	1.5498249744996428	right	o
90.18942745635286	1.0006758926901966	loss	n/a	n/a	n/a
92.92485335026868	3.0064060378354043	decision	2.0673803738318384	left	o
96.47785462765023	1.0005201264284551	win	n/a	n/a	n/a
103.40033435402438	3.005552040413022	decision	1.5515338748227805	right	o
106.95320733566768	1.000892637297511	win	n/a	n/a	n/a
109.67188956518658	3.005242621060461	decision	2.3182751243002713	left	o
113.22479514917359	1.0008244139607996	win	n/a	n/a	n/a
120.14717737049796	3.006195632740855	decision	1.8009886932559311	right	o
123.70053485780954	1.0004688079934567	win	n/a	n/a	n/a
128.52113621216267	3.0059625869616866	decision	2.062642181990668	left	o
132.07369041629136	1.0007356635760516	win	n/a	n/a	n/a
136.894406784093	3.006636366713792	decision	1.800605918513611	right	o
140.4472716152668	1.000751360785216	win	n/a	n/a	n/a
145.26812080689706	3.005907042650506	decision	1.7999257997144014	left	o
148.82124856906012	1.0002315363381058	win	n/a	n/a	n/a
162.04877838189714	3.005692713195458	decision	2.567655078135431	right	o
165.60133168054745	1.0007160417735577	loss	n/a	n/a	n/a
172.52399132284336	3.005296958144754	decision	1.8003535531461239	left	o
176.0765271128621	1.000831960933283	win	n/a	n/a	n/a
183.01580755738541	3.0060848454013467	decision	2.0632833593990654	left	o
186.568387420848	1.0006064618937671	loss	n/a	n/a	n/a
191.38943856512196	3.0058505923952907	decision	2.063434295821935	left	o
194.94208333129063	1.0006988348904997	loss	n/a	n/a	n/a
197.66116041014902	3.006096618482843	decision	2.050662972498685	left	o
201.2139063035138	1.0007616244256496	loss	n/a	n/a	n/a
203.94946532323956	3.0063372110016644	decision	2.3176867745351046	right	o
207.5023633602541	1.000894750468433	win	n/a	n/a	n/a
214.72516675433144	3.005599736236036	decision	1.800602899864316	right	o
218.27775778691284	1.0009095421992242	loss	n/a	n/a	n/a
225.21698962990195	3.00676315324381	decision	2.3187451399862766	right	o
228.7696721300017	1.0012847697362304	win	n/a	n/a	n/a
233.5904899269808	3.005654375301674	decision	1.8005398085806519	left	o
237.14327778061852	1.0010287817567587	loss	n/a	n/a	n/a
240.07937165815383	3.066584939835593	decision-missed	n/a	n/a	o
243.6990451165475	1.0005687279626727	win	n/a	n/a	n/a
248.51947530917823	3.0060244710184634	decision	1.8002210310660303	right	o
252.0723301784601	1.0007160417735577	loss	n/a	n/a	n/a
254.79145676456392	3.0050406681839377	decision	2.0681697707623243	left	o
258.3441425852943	1.0007924153469503	loss	n/a	n/a	n/a
261.0797127741389	3.005923947552219	decision	1.800789155298844	left	o
264.6325896801427	1.0009581437334418	loss	n/a	n/a	n/a
267.35167490970343	3.0059034200385213	decision	2.067444974789396	right	o
270.90457083377987	1.000774604966864	win	n/a	n/a	n/a
277.8435974032618	3.0059849256649613	decision	2.068244031397626	left	o
281.3963589940686	1.0007903024088591	loss	n/a	n/a	n/a
284.1153956220951	3.0054171034134924	decision	2.835748716490343	right	o
287.66837425902486	1.000769171398133	loss	n/a	n/a	n/a
292.4887522277422	3.0057781429495662	decision	1.8015550060663372	right	o
296.0419062527362	1.0009684073738754	win	n/a	n/a	n/a
303.01427796902135	3.0061908026691526	decision	1.8011900421697646	right	o
306.56705314386636	1.0009297677315772	loss	n/a	n/a	n/a
313.5063526064623	3.0056537713389844	decision	1.8010783491190523	right	o
317.0589493745938	1.001042969757691	win	n/a	n/a	n/a
319.77803188725375	3.0053268435876817	decision	1.5513853537850082	left	o
323.33087890804745	1.0000395451206714	loss	n/a	n/a	n/a
326.0665001133457	3.0066894963383675	decision	1.8008815282955766	left	o
329.619263515342	1.0011018349323422	loss	n/a	n/a	n/a
336.55845792614855	3.0060033400077373	decision	2.3179158959537745	left	o
340.11133271898143	1.0008059998508543	loss	n/a	n/a	n/a
342.8471036532428	3.0058164808433503	decision	1.8012591709848493	left	o
346.39979671896435	1.0010610821191221	loss	n/a	n/a	n/a
351.2207011533901	3.0056229804176837	decision	2.5685951090417802	left	o
354.7732891673222	1.000877543585375	win	n/a	n/a	n/a
363.7978298983071	3.0054125753231347	decision	1.5504824528470635	left	o
367.35029625776224	1.0010305929463357	loss	n/a	n/a	n/a
370.06932382960804	3.0065216550137848	decision	2.0509346576873213	left	o
373.62202172516845	1.0009158812463284	win	n/a	n/a	n/a
376.3580764194485	3.0056890905834734	decision	1.80113962944597	right	o
379.9106602072716	1.0008817699272186	loss	n/a	n/a	n/a
382.62956069083884	3.0056495452299714	decision	2.5676227775402367	left	o
386.18241495639086	1.0007323429454118	loss	n/a	n/a	n/a
391.0034377248958	3.006016320316121	decision	2.31769915134646	right	o
394.5558995560277	1.000963275320828	loss	n/a	n/a	n/a
401.49518301920034	3.005943871103227	decision	2.0679433662444353	left	o
405.0480982630979	1.0007761144079268	loss	n/a	n/a	n/a
411.98719064099714	3.0051297205500305	decision	2.0631846468895674	left	o
415.539974268293	1.0008914298377931	loss	n/a	n/a	n/a
422.47944126999937	3.006516523193568	decision	2.5676167402416468	left	o
426.0318354817573	1.0003269279841334	win	n/a	n/a	n/a
430.85277946153656	3.0052516772411764	decision	2.3172883028164506	left	o
434.40540520939976	1.0011815293692052	win	n/a	n/a	n/a
437.3749100419227	3.0054614786058664	decision	1.5500854903366417	right	o
440.9274998670444	1.0006384605076164	loss	n/a	n/a	n/a
445.7648285846226	3.005092590348795	decision	2.0680188343394548	right	o
449.31787423742935	1.0007389839738607	win	n/a	n/a	n/a
454.13871618406847	3.0682902180124074	decision-missed	n/a	n/a	o
457.75788974156603	1.000731437234208	win	n/a	n/a	n/a
460.49353238008916	3.0052489603403956	decision	2.068158903159201	right	o
464.0466640663799	1.0008672799449414	win	n/a	n/a	n/a
466.7822602165397	3.0056525638792664	decision	1.5505458458792418	left	o
470.3348301181104	1.0009617661125958	win	n/a	n/a	n/a
473.07071153772995	3.0061409939080477	decision	2.0681637332309037	left	o
476.6233916229103	1.0009995000436902	win	n/a	n/a	n/a
483.56271855556406	3.0053540121298283	decision	1.550120507599786	right	o
487.1153512466699	1.0010046320967376	win	n/a	n/a	n/a
494.05457886355	3.0053760486189276	decision	1.5512431715615094	left	o
497.60770481452346	1.0003311540931463	loss	n/a	n/a	n/a
