onset	duration	trial_type	rt	resp	gender
0.61816801992245	3.00638460484333	decision	2.0679494035430253	right	M
4.17099421122111	1.00077490694821	win	n/a	n/a	n/a
11.0935391420498	3.00594960642047	decision	2.062921112170443	right	M
14.646040216554	1.00058895349503	loss	n/a	n/a	n/a
17.3651342003141	3.00634355051443	decision	1.8009129231795669	left	M
20.9181067999452	1.00109006208368	win	n/a	n/a	n/a
23.7870950077195	3.00534133333713	decision	1.8013660337310284	left	F
27.340189563809	1.0007510590367	win	n/a	n/a	n/a
32.1609669099562	3.00632332474925	decision	2.0674618794582784	left	F
35.7137206518091	1.00094274803996	loss	n/a	n/a	n/a
42.6362030950841	3.00511824944988	decision	2.0681631295010448	left	M
46.1888599358499	1.00101459375583	loss	n/a	n/a	n/a
50.9927837359719	3.00655546481721	decision	2.3185220560990274	left	M
54.5458903671242	1.00064419605769	win	n/a	n/a	n/a
59.3661777738016	3.00507266679779	decision	2.5681296216789633	left	F
62.9196065030992	1.00046216673218	loss	n/a	n/a	n/a
65.6546716592275	3.00561120733619	decision	2.317609495250508	right	F
69.2080789553002	1.00043197977357	win	n/a	n/a	n/a
71.9266636800021	3.00559852877632	decision	2.3186391827184707	right	F
75.4795484347269	1.00095180422068	win	n/a	n/a	n/a
78.8824779873248	3.00582704646513	decision	1.8011906458996236	right	F
82.4357651383616	1.00028043962084	loss	n/a	n/a	n/a
87.256040470209	3.00517409597524	decision	2.5681933166924864	right	M
90.8089161687531	1.0008292440325	loss	n/a	n/a	n/a
93.8947765780613	3.00542404642329	decision	2.068429079139605	left	M
97.4477823835332	1.00081565976143	win	n/a	n/a	n/a
104.387073997408	3.0050729685463	decision	2.068092189496383	right	M
107.939312744653	1.00115345511585	win	n/a	n/a	n/a
110.658816973446	3.00633721100166	decision	2.5679161977022886	left	F
114.211703841109	1.00055393623188	win	n/a	n/a	n/a
121.133530013263	3.00567248766311	decision	2.3175832324195653	right	M
124.686865161872	1.0007423046045	win	n/a	n/a	n/a
129.524281724356	3.00575640820898	decision	2.0677691858727485	right	F
133.077050258173	1.00067740189843	win	n/a	n/a	n/a
137.897433660459	3.00586870475672	decision	1.8007589681074023	right	M
141.450675530359	1.0007510590367	win	n/a	n/a	n/a
146.271429028595	3.00524443225004	decision	2.8185914866626263	right	F
149.823972667102	1.00095120049082	win	n/a	n/a	n/a
163.051502480172	3.00543853640556	decision	2.3175802135374397	left	M
166.604530624347	1.00110304239206	loss	n/a	n/a	n/a
173.526739570778	3.00615880428813	decision	2.0671763082500547	right	M
177.07958930824	1.00090924021788	win	n/a	n/a	n/a
184.002788095037	3.00498723681085	decision	2.067051634658128	right	M
187.554976731539	1.00089444848709	loss	n/a	n/a	n/a
192.375885392306	3.0066949299071	decision	2.3176291168201715	right	M
195.92875143094	1.00072268280201	loss	n/a	n/a	n/a
198.647534485906	3.00529846735299	decision	2.068330970592797	right	F
202.200761866057	1.00057899160311	loss	n/a	n/a	n/a
204.936385184526	3.00535582331941	decision	2.0674371260683984	right	F
208.489115078701	1.00057174661197	win	n/a	n/a	n/a
215.411197540583	3.09110303036869	decision	3.085861013038084	right	M
219.047558816848	1.0008639593143	loss	n/a	n/a	n/a
225.969427251024	3.34087239974178	decision	3.3356838137842715	right	M
229.85658939532	1.00076253013685	win	n/a	n/a	n/a
234.677395721199	3.00623578159139	decision	2.5678515969775617	right	F
238.22998343315	1.00083467760123	loss	n/a	n/a	n/a
240.965791195864	3.00530118425377	decision	2.068096113856882	left	F
244.518514146795	1.00070306123234	win	n/a	n/a	n/a
249.356559208129	3.00610567466356	decision	2.3170489177573472	left	F
252.908859839197	1.00102576310746	loss	n/a	n/a	n/a
255.661062603584	3.00564622459933	decision	2.5686717848293483	right	M
259.214139651041	1.00053280498832	loss	n/a	n/a	n/a
261.932870482095	3.00602960283868	decision	2.567967214155942	left	M
265.486144350609	1.00070728734136	loss	n/a	n/a	n/a
268.338564281818	3.00605284702033	decision	2.0679210277739912	right	M
271.890949739376	1.00079966033809	win	n/a	n/a	n/a
278.830242258729	3.00531325931661	decision	1.8010478601790965	left	F
282.3829470973	1.0006294043269	loss	n/a	n/a	n/a
285.118831535801	3.00668557197787	decision	2.066702971700579	right	F
288.671294574393	1.00117247318849	loss	n/a	n/a	n/a
294.059220154304	3.00526948785409	decision	2.0682313528377563	left	F
297.612097664271	1.00081777269952	win	n/a	n/a	n/a
304.534517317777	3.00521545251831	decision	2.834945131558925	left	M
308.087337471778	1.00071000424214	loss	n/a	n/a	n/a
315.026550900424	3.09067195630632	decision	3.0855660836678	right	F
318.662881083786	1.00077822757885	win	n/a	n/a	n/a
321.398429839872	3.0688870199956	decision-missed	n/a	n/a	F
325.018037792062	1.00048178853467	loss	n/a	n/a	n/a
327.737051779637	3.0702895198483	decision-missed	n/a	n/a	M
331.356603885069	1.00072479620576	loss	n/a	n/a	n/a
338.278831849573	3.09007062623277	decision	3.0848316275514662	left	M
341.915060603991	1.00112206023186	loss	n/a	n/a	n/a
344.634222810855	3.00609903363511	decision	2.0676203626208007	right	F
348.187317970674	1.00074532348663	loss	n/a	n/a	n/a
353.007741220295	3.00553694670089	decision	2.067509575281292	right	F
356.560749138938	1.00051590031944	win	n/a	n/a	n/a
365.601730756229	3.00568486424163	decision	2.568515414837748	left	F
369.154162098188	1.00112266419455	loss	n/a	n/a	n/a
371.873063789215	3.07008998212405	decision-missed	n/a	n/a	M
375.492792188423	1.0006641196087	win	n/a	n/a	n/a
378.21196284797	3.34140943083912	decision	3.3362661260180175	left	M
382.098428270081	1.00054397457279	loss	n/a	n/a	n/a
384.817473350558	3.00569180748425	decision	2.0667044813744724	right	M
388.369943936123	1.00091678695753	loss	n/a	n/a	n/a
393.190589665668	3.0054180091247	decision	2.0680586816743016	right	F
396.743710484821	1.00063936621882	loss	n/a	n/a	n/a
404.183583806967	3.00655274814926	decision	2.0665170184802264	right	F
407.735805045813	1.0009886326734	loss	n/a	n/a	n/a
414.675206239335	3.00685280933976	decision	2.316862964304164	right	M
418.227899908554	1.00083256466314	loss	n/a	n/a	n/a
425.16693764762	3.00583640439436	decision	2.568077095784247	left	F
428.720043976791	1.00067136459984	win	n/a	n/a	n/a
433.540643821703	3.00603503664024	decision	2.318035135511309	left	F
437.093568121782	1.00061189569533	win	n/a	n/a	n/a
439.812458643457	3.00650988216512	decision	2.063461464131251	left	F
443.365184915019	1.00101791438647	loss	n/a	n/a	n/a
448.186127385357	3.00682352762669	decision	2.06784012587741	right	M
451.738962934818	1.0005155983381	win	n/a	n/a	n/a
456.576263578143	3.06909682136029	decision-missed	n/a	n/a	F
460.195825947449	1.00080841477029	win	n/a	n/a	n/a
462.931637936505	3.00512639991939	decision	2.816923640668392	left	F
466.484309569001	1.00086939311586	win	n/a	n/a	n/a
469.203452456277	3.0056202635169	decision	2.318055361043662	right	F
472.756093297852	1.00071906042285	win	n/a	n/a	n/a
475.475410969229	3.00533016421832	decision	2.067221588920802	right	M
479.028181917965	1.00062638567761	win	n/a	n/a	n/a
485.950626325095	3.00534012587741	decision	2.3182129384949803	right	M
489.503084533848	1.00090199522674	win	n/a	n/a	n/a
496.79263135069	3.00515507813543	decision	1.800135601311922	left	M
500.345616025385	1.00078426487744	loss	n/a	n/a	n/a
