onset	duration	trial_type	rt	resp	gender
0.615708663826808	3.00538389757276	decision	1.5511812877375633	right	o
4.16883702971973	1.00058050104417	win	n/a	n/a	n/a
11.1079070691485	3.00557890697382	decision	2.068052342161536	left	o
14.6605141009204	1.00080358493142	loss	n/a	n/a	n/a
17.3795090706553	3.00667168572545	decision	1.7999179509934038	right	o
20.9324149563909	1.00096810539253	win	n/a	n/a	n/a
23.6513087986968	3.00616121920757	decision	1.8005890138447285	left	o
27.2043749787845	1.00085822376423	win	n/a	n/a	n/a
32.0248534709681	3.00632875855081	decision	2.0495707974769175	left	o
35.5776364945341	1.00083347037435	loss	n/a	n/a	n/a
42.5170253112447	3.00543551775627	decision	1.5503991360310465	right	o
46.0696981514338	1.00081143365242	loss	n/a	n/a	n/a
50.8905047790613	3.00580621720292	decision	2.068091887747869	right	o
54.4431561862584	1.00106349727139	win	n/a	n/a	n/a
59.2637472769711	3.00611563655548	decision	1.5515870044473559	right	o
62.8167144430336	1.00090682506561	loss	n/a	n/a	n/a
65.5358042004518	3.00554811605252	decision	1.8004003434907645	left	o
69.0886512212455	1.00065687461756	win	n/a	n/a	n/a
71.807622946566	3.00667138397694	decision	1.8006629724986851	left	o
75.3604920038488	1.00070094829425	win	n/a	n/a	n/a
78.2631290419959	3.00551883433945	decision	1.550266311969608	right	o
81.815385298105	1.00083196070045	loss	n/a	n/a	n/a
86.6363962932955	3.0064730537124	decision	1.5498249744996428	right	o
90.1894274563529	1.0006758926902	loss	n/a	n/a	n/a
92.9248533502687	3.0064060378354	decision	2.0673803738318384	left	o
96.4778546276502	1.00052012642846	win	n/a	n/a	n/a
103.400334354024	3.00555204041302	decision	1.5515338748227805	right	o
106.953207335668	1.00089263729751	win	n/a	n/a	n/a
109.671889565187	3.00524262106046	decision	2.3182751243002713	left	o
113.224795149174	1.0008244139608	win	n/a	n/a	n/a
120.147177370498	3.00619563274086	decision	1.8009886932559311	right	o
123.70053485781	1.00046880799346	win	n/a	n/a	n/a
128.521136212163	3.00596258696169	decision	2.062642181990668	left	o
132.073690416291	1.00073566357605	win	n/a	n/a	n/a
136.894406784093	3.00663636671379	decision	1.800605918513611	right	o
140.447271615267	1.00075136078522	win	n/a	n/a	n/a
145.268120806897	3.00590704265051	decision	1.7999257997144014	left	o
148.82124856906	1.00023153633811	win	n/a	n/a	n/a
162.048778381897	3.00569271319546	decision	2.567655078135431	right	o
165.601331680547	1.00071604177356	loss	n/a	n/a	n/a
172.523991322843	3.00529695814475	decision	1.8003535531461239	left	o
176.076527112862	1.00083196093328	win	n/a	n/a	n/a
183.015807557385	3.00608484540135	decision	2.0632833593990654	left	o
186.568387420848	1.00060646189377	loss	n/a	n/a	n/a
191.389438565122	3.00585059239529	decision	2.063434295821935	left	o
194.942083331291	1.0006988348905	loss	n/a	n/a	n/a
197.661160410149	3.00609661848284	decision	2.050662972498685	left	o
201.213906303514	1.00076162442565	loss	n/a	n/a	n/a
203.94946532324	3.00633721100166	decision	2.3176867745351046	right	o
207.502363360254	1.00089475046843	win	n/a	n/a	n/a
214.725166754331	3.00559973623604	decision	1.800602899864316	right	o
218.277757786913	1.00090954219922	loss	n/a	n/a	n/a
225.216989629902	3.00676315324381	decision	2.3187451399862766	right	o
228.769672130002	1.00128476973623	win	n/a	n/a	n/a
233.590489926981	3.00565437530167	decision	1.8005398085806519	left	o
237.143277780619	1.00102878175676	loss	n/a	n/a	n/a
240.079371658154	3.06658493983559	decision-missed	n/a	n/a	o
243.699045116547	1.00056872796267	win	n/a	n/a	n/a
248.519475309178	3.00602447101846	decision	1.8002210310660303	right	o
252.07233017846	1.00071604177356	loss	n/a	n/a	n/a
254.791456764564	3.00504066818394	decision	2.0681697707623243	left	o
258.344142585294	1.00079241534695	loss	n/a	n/a	n/a
261.079712774139	3.00592394755222	decision	1.800789155298844	left	o
264.632589680143	1.00095814373344	loss	n/a	n/a	n/a
267.351674909703	3.00590342003852	decision	2.067444974789396	right	o
270.90457083378	1.00077460496686	win	n/a	n/a	n/a
277.843597403262	3.00598492566496	decision	2.068244031397626	left	o
281.396358994069	1.00079030240886	loss	n/a	n/a	n/a
284.115395622095	3.00541710341349	decision	2.835748716490343	right	o
287.668374259025	1.00076917139813	loss	n/a	n/a	n/a
292.488752227742	3.00577814294957	decision	1.8015550060663372	right	o
296.041906252736	1.00096840737388	win	n/a	n/a	n/a
303.014277969021	3.00619080266915	decision	1.8011900421697646	right	o
306.567053143866	1.00092976773158	loss	n/a	n/a	n/a
313.506352606462	3.00565377133898	decision	1.8010783491190523	right	o
317.058949374594	1.00104296975769	win	n/a	n/a	n/a
319.778031887254	3.00532684358768	decision	1.5513853537850082	left	o
323.330878908047	1.00003954512067	loss	n/a	n/a	n/a
326.066500113346	3.00668949633837	decision	1.8008815282955766	left	o
329.619263515342	1.00110183493234	loss	n/a	n/a	n/a
336.558457926149	3.00600334000774	decision	2.3179158959537745	left	o
340.111332718981	1.00080599985085	loss	n/a	n/a	n/a
342.847103653243	3.00581648084335	decision	1.8012591709848493	left	o
346.399796718964	1.00106108211912	loss	n/a	n/a	n/a
351.22070115339	3.00562298041768	decision	2.5685951090417802	left	o
354.773289167322	1.00087754358537	win	n/a	n/a	n/a
363.797829898307	3.00541257532313	decision	1.5504824528470635	left	o
367.350296257762	1.00103059294634	loss	n/a	n/a	n/a
370.069323829608	3.00652165501378	decision	2.0509346576873213	left	o
373.622021725168	1.00091588124633	win	n/a	n/a	n/a
376.358076419448	3.00568909058347	decision	1.80113962944597	right	o
379.910660207272	1.00088176992722	loss	n/a	n/a	n/a
382.629560690839	3.00564954522997	decision	2.5676227775402367	left	o
386.182414956391	1.00073234294541	loss	n/a	n/a	n/a
391.003437724896	3.00601632031612	decision	2.31769915134646	right	o
394.555899556028	1.00096327532083	loss	n/a	n/a	n/a
401.4951830192	3.00594387110323	decision	2.0679433662444353	left	o
405.048098263098	1.00077611440793	loss	n/a	n/a	n/a
411.987190640997	3.00512972055003	decision	2.0631846468895674	left	o
415.539974268293	1.00089142983779	loss	n/a	n/a	n/a
422.479441269999	3.00651652319357	decision	2.5676167402416468	left	o
426.031835481757	1.00032692798413	win	n/a	n/a	n/a
430.852779461537	3.00525167724118	decision	2.3172883028164506	left	o
434.4054052094	1.00118152936921	win	n/a	n/a	n/a
437.374910041923	3.00546147860587	decision	1.5500854903366417	right	o
440.927499867044	1.00063846050762	loss	n/a	n/a	n/a
445.764828584623	3.0050925903488	decision	2.0680188343394548	right	o
449.317874237429	1.00073898397386	win	n/a	n/a	n/a
454.138716184068	3.06829021801241	decision-missed	n/a	n/a	o
457.757889741566	1.00073143723421	win	n/a	n/a	n/a
460.493532380089	3.0052489603404	decision	2.068158903159201	right	o
464.04666406638	1.00086727994494	win	n/a	n/a	n/a
466.78226021654	3.00565256387927	decision	1.5505458458792418	left	o
470.33483011811	1.0009617661126	win	n/a	n/a	n/a
473.07071153773	3.00614099390805	decision	2.0681637332309037	left	o
476.62339162291	1.00099950004369	win	n/a	n/a	n/a
483.562718555564	3.00535401212983	decision	1.550120507599786	right	o
487.11535124667	1.00100463209674	win	n/a	n/a	n/a
494.05457886355	3.00537604861893	decision	1.5512431715615094	left	o
497.607704814523	1.00033115409315	loss	n/a	n/a	n/a
