TrialNumber,nTrial,Block,Endowment,ITI,ISI,L_Option,R_Option,ran,order,cue_Onset,endowment_onset,endowment_offset,ISI_onset,ISI_offset,decision_onset,resp,rt,resp_onset,decision_offset,trialDuration,ITIonset,ITIoffset
1,1,1,15,1,1.5,5,1,1.0,0.0,4.9918118,5.9908695,6.0074296,6.0077763,7.5239363,7.524138,2.0,1.7504734,9.274611,11.041706,3.5180151,11.042296,12.04639
2,2,3,21,1,1.5,1,0,1.0,1.0,13.0418825,14.040962,14.057792,14.05802,15.57427,15.574461,3.0,1.8332752,17.407736,19.090704,3.516593,19.091175,20.095163
3,3,2,21,5,1.5,7,4,1.0,2.0,21.09176,22.090723,22.107618,22.10789,23.624266,23.624416,3.0,1.816639,25.441053,27.140734,3.5166621,27.141195,32.145115
4,4,3,19,1,3,0,6,1.0,3.0,33.141705,34.140705,34.157562,34.157803,37.174644,37.174835,2.0,1.6164969,38.791332,40.69134,3.516882,40.69184,41.69573
5,5,2,15,1,1.5,7,3,1.0,4.0,42.691635,43.69097,43.707462,43.707783,45.22434,45.224495,2.0,1.3164934,46.54099,48.741714,3.5175736,48.742188,49.74632
6,6,1,23,1,1.5,10,1,1.0,5.0,50.742035,51.740726,51.757465,51.757774,53.27412,53.274273,2.0,1.4168357,54.69111,56.79171,3.5177877,56.79218,57.796352
7,7,2,19,1,1.5,4,9,1.0,6.0,58.791794,59.791153,59.807663,59.808014,61.324703,61.32486,3.0,2.582913,63.907772,64.842514,3.5180037,64.84298,65.8477
8,8,3,15,3,4.5,7,0,1.0,7.0,66.841736,67.84083,67.85762,67.857834,72.37415,72.374344,2.0,2.2001088,74.57445,75.8917,3.5177038,75.89216,78.89607
9,9,3,21,1,3,0,1,1.0,8.0,79.892044,80.890686,80.90773,80.907974,83.92418,83.92437,2.0,1.8833337,85.8077,87.44115,3.5171287,87.441635,88.44543
10,10,2,21,3,3,9,1,1.0,9.0,89.44218,90.44072,90.45747,90.45779,93.47415,93.47431,2.0,1.0834632,94.55778,96.99071,3.5167434,96.99117,99.99572
11,11,3,19,8,1.5,9,0,1.0,10.0,100.99182,101.991005,102.007484,102.00775,103.524704,103.524895,2.0,1.1829408,104.70783,107.04215,3.517598,107.042625,115.04603
12,12,2,17,1,3,3,5,1.0,11.0,116.04176,117.0408,117.05762,117.0579,120.074036,120.07418,3.0,1.4002422,121.47443,123.590935,3.517103,123.5914,124.59486
13,13,3,17,1,1.5,3,0,1.0,12.0,125.59177,126.590965,126.6077,126.60793,128.12447,128.12468,999.0,999.0,999.0,131.14099,3.532093,131.65698,132.66116
14,14,1,23,5,1.5,1,10,1.0,13.0,133.65852,134.65741,134.6741,134.67441,136.19096,136.19112,3.0,1.9170022,138.10812,139.70709,3.5163224,139.70757,144.71153
15,15,1,19,1,1.5,1,9,1.0,14.0,145.70851,146.70743,146.72443,146.72472,148.2407,148.24086,3.0,1.3004127,149.54128,151.75786,3.5173404,151.75833,152.76167
16,16,1,15,1,3,5,1,1.0,15.0,153.75867,154.75745,154.77411,154.7744,157.79073,157.79095,2.0,1.1003072,158.89127,161.30748,3.5168946,161.30797,162.31192
17,17,3,15,3,1.5,0,7,1.0,16.0,163.30853,164.3075,164.32422,164.32445,165.84085,165.84105,3.0,1.1836044,167.02464,169.3577,3.5169883,169.35815,172.36171
18,18,3,17,3,1.5,8,0,1.0,17.0,173.35854,174.35774,174.37413,174.37436,175.89175,175.89195,2.0,1.0992204,176.99117,179.40872,3.5171232,179.40918,182.41373
19,19,2,25,8,1.5,8,11,1.0,18.0,183.40858,184.40775,184.42445,184.42482,185.94083,185.94098,2.0,2.8334372,188.77441,189.45866,3.518026,189.45912,197.46321
20,20,1,25,3,4.5,2,11,1.0,19.0,198.45863,199.45758,199.47438,199.47472,203.99173,203.99188,3.0,1.4158382,205.40771,207.50977,3.5182474,207.51024,210.5141
21,21,3,17,3,4.5,8,0,1.0,20.0,211.50844,212.50748,212.52414,212.52438,217.04085,217.04103,2.0,1.1169281,218.15796,220.55774,3.5170531,220.55821,223.56274
22,22,2,17,3,3,1,5,1.0,21.0,224.55853,225.55748,225.57422,225.57451,228.59084,228.59099,3.0,1.4168009,230.00778,232.1081,3.5174634,232.10857,235.11273
23,23,1,19,1,1.5,4,6,1.0,22.0,236.10873,237.10759,237.12415,237.12444,238.64073,238.64088,3.0,2.0835874,240.72447,242.15793,3.5173795,242.15839,243.16222
24,24,3,15,1,4.5,0,3,1.0,23.0,244.15854,245.15756,245.1743,245.17453,249.6917,249.6919,2.0,2.416074,252.10796,253.2081,3.5165644,253.20857,254.21269
25,25,1,25,1,1.5,2,5,1.0,24.0,255.20848,256.20758,256.2242,256.2245,257.7417,257.74185,3.0,1.0829374,258.82477,261.25974,3.5182369,261.2602,262.26453
26,26,1,23,5,3,4,10,1.0,25.0,263.2585,264.25745,264.27417,264.27448,267.29074,267.2909,3.0,1.8519174,269.14282,270.8055,3.515,270.80603,275.80984
27,27,2,17,1,4.5,5,1,1.0,26.0,276.80823,277.80734,277.824,277.82428,282.34033,282.34048,3.0,1.1003358,283.44083,285.8576,3.5174701,285.8581,286.86172
28,28,2,23,1,1.5,1,4,1.0,27.0,287.85855,288.85754,288.87405,288.87436,290.39078,290.39093,3.0,1.3501511,291.7411,293.90744,3.5168638,293.90793,294.91174
29,29,1,25,5,1.5,11,8,1.0,28.0,295.90857,296.90747,296.9245,296.92484,298.44077,298.44092,2.0,1.2332623,299.6742,301.9577,3.5171053,301.95816,306.96216
30,30,2,21,1,4.5,7,9,1.0,29.0,307.95847,308.95764,308.97418,308.97446,313.49173,313.4919,3.0,1.8992566,315.39114,317.0087,3.5171397,317.00916,318.01376
31,31,3,19,5,1.5,1,0,1.0,30.0,319.00848,320.00766,320.0241,320.02435,321.54095,321.54114,3.0,1.1334155,322.67456,325.05835,3.5175781,325.05884,330.0629
32,32,1,23,3,3,1,7,1.0,31.0,331.0586,332.0575,332.07407,332.07437,335.0908,335.09094,3.0,1.5839785,336.67493,338.60873,3.5181534,338.60922,341.61316
33,33,3,21,3,1.5,9,0,1.0,32.0,342.60855,343.60767,343.62442,343.62466,345.14102,345.1412,2.0,1.4333076,346.57452,348.6583,3.5174696,348.6588,351.66376
34,34,2,17,8,3,3,1,1.0,33.0,352.6586,353.6577,353.67416,353.67447,356.6911,356.69125,2.0,1.1500077,357.84125,360.20755,3.5166845,360.20807,368.21277
35,35,1,21,1,1.5,4,1,1.0,34.0,369.20865,370.20758,370.2244,370.22473,371.74173,371.74188,2.0,0.8992349,372.6411,375.25775,3.516202,375.2582,376.26273
36,36,2,21,3,3,9,4,1.0,35.0,377.25854,378.25763,378.27402,378.2743,381.2916,381.29178,3.0,1.3661616,382.65793,384.80804,3.5166087,384.8085,387.8124
