onset	duration	trial_type	rt	resp	gender
0.665151870518457	3.00703181768768	decision	2.06566903847852	left	B
4.21453141691745	1.00008271305705	loss	NaN	n/a	n/a
11.2145392656093	3.00688450387679	decision	2.06667216072674	left	B
14.7644920678285	1.01669898213004	win	NaN	n/a	n/a
21.7645113876788	3.00667530627106	decision	1.79972903925227	left	B
25.3144391344977	1.00011199468281	loss	NaN	n/a	n/a
32.3144979996432	3.00714954792056	decision	1.5485638869286	right	B
35.8644133696798	1.01667241734685	loss	NaN	n/a	n/a
38.6644460926764	3.00758726301137	decision	2.31596962799085	left	B
42.2144227428362	1.01682033485849	loss	NaN	n/a	n/a
44.9979385127954	3.00706894797622	decision	1.79978065946489	left	B
48.5477781128429	1.00006128012319	win	NaN	n/a	n/a
51.3143947592471	3.00690020126058	decision	1.29943486451521	right	B
54.8643747300084	1.01650125562446	win	NaN	n/a	n/a
59.7643175855337	3.00780793183367	decision	1.29898296142346	left	B
63.314395664871	1.01655740392744	loss	NaN	n/a	n/a
68.2313100933679	3.00704177946318	decision	1.79902809136547	left	B
71.7810956582543	1.01665732372203	win	NaN	n/a	n/a
74.5644100792706	3.00689567317022	decision	1.54986676858971	right	B
78.1142840927932	1.01666637987364	win	NaN	n/a	n/a
83.0310487925599	3.00724312837701	decision	1.54955221744603	left	B
86.5810815909936	1.0168272779265	loss	NaN	n/a	n/a
93.5977691019652	3.00746440092917	decision	2.06595642108005	left	B
97.1474007118668	1.00016089802375	loss	NaN	n/a	n/a
104.147752997058	3.00644769440987	decision	1.79923366650473	right	B
107.69756271175	1.01662019337527	win	NaN	n/a	n/a
114.714126454986	3.00667319315835	decision	2.06602102180477	right	B
118.26405963552	1.01682063672342	win	NaN	n/a	n/a
123.164035998896	3.00681356384302	decision	2.06628063213429	right	B
126.71410290894	1.01678682700731	win	NaN	n/a	n/a
129.497470459493	3.00704993002	decision	1.54950965344324	right	B
133.047476089443	1.00020648076315	win	NaN	n/a	n/a
135.814106018224	3.00712841685163	decision	2.06198468478397	right	B
139.36410108261	1.01659936417127	loss	NaN	n/a	n/a
142.164071619831	3.00763948698295	decision	2.31596359057585	left	B
145.713871372718	1.00008241119212	loss	NaN	n/a	n/a
154.814063756057	3.00669311673846	decision	1.54943720405572	right	B
158.363912412286	1.01656344137155	loss	NaN	n/a	n/a
163.263980544929	3.0069964985596	decision	1.54938799879164	right	B
166.814071604749	1.01649008636014	win	NaN	n/a	n/a
169.597530018946	3.00640422475408	decision	1.79922732719569	right	B
173.147409768048	1.01654080091976	loss	NaN	n/a	n/a
180.164082789124	3.00704872253118	decision	2.06586012375192	right	B
183.71391393675	1.0168194292346	loss	NaN	n/a	n/a
186.513926434272	3.00678488597623	decision	1.54944143025205	right	B
190.063756072544	1.01668419037014	win	NaN	n/a	n/a
192.84734036756	3.00750756869093	decision	1.54953410511371	left	B
196.397441389185	1.01635182875907	win	NaN	n/a	n/a
203.413833366998	3.00801471446175	decision	1.54943720402662	right	B
206.963623459946	1.00002445167047	loss	NaN	n/a	n/a
213.963820280827	3.00795101936092	decision	1.79948422065354	left	B
217.513799345965	1.01657762937248	loss	NaN	n/a	n/a
222.430604194757	3.00715407601092	decision	1.80015890568029	right	B
225.980278670555	1.00002203669283	loss	NaN	n/a	n/a
228.747256658331	3.00645765618538	decision	1.79928136235685	left	B
232.297084183461	1.01645748413284	loss	NaN	n/a	n/a
239.313715244294	3.00712056815973	decision	1.79960738462978	left	B
242.863766456954	1.0165293297614	loss	NaN	n/a	n/a
245.663777445094	3.00689386195154	decision	2.06595219488372	right	B
249.213656288572	1.01654472528026	win	NaN	n/a	n/a
251.997888100101	3.00685854285257	decision	1.54863844942884	right	B
255.547185537172	1.01622564604622	loss	NaN	n/a	n/a
258.330568483245	3.00747436270467	decision	1.29998698929558	left	B
261.880084777862	1.00005192207755	win	NaN	n/a	n/a
266.763673087786	3.00677522606566	decision	1.80049488975783	left	B
270.313420314866	1.0001276920666	win	NaN	n/a	n/a
273.096941820404	3.00761895964388	decision	1.7994531278091	right	B
276.646970694506	1.01651483989554	win	NaN	n/a	n/a
281.547112785891	3.00699287612224	decision	1.79971304003266	left	B
285.096979856346	1.01638895907672	win	NaN	n/a	n/a
292.113592804817	3.0079033235088	decision	1.81180816484266	right	B
295.663436329196	1.0167768652318	win	NaN	n/a	n/a
302.67999675186	3.00669039986678	decision	1.54951387963956	left	B
306.230080264882	1.00004075278412	win	NaN	n/a	n/a
309.030310412461	3.00750002186396	decision	2.06676634494215	right	B
312.580176275398	1.01675935662934	loss	NaN	n/a	n/a
315.396870246448	3.00695634953445	decision	1.5492974370718	left	B
318.946987871052	1.01623379663215	win	NaN	n/a	n/a
323.846831712435	3.00668677740032	decision	1.79934928365401	right	B
327.396577430132	1.00026021408848	loss	NaN	n/a	n/a
334.413458441355	3.00656451904797	decision	1.79934837805922	left	B
337.963372000173	1.01642095754505	win	NaN	n/a	n/a
344.996769964404	3.00751813422539	decision	1.54939222504618	left	B
348.54696366089	1.01618278014939	win	NaN	n/a	n/a
361.863402096875	3.00716132094385	decision	2.5659614019678	left	B
365.413070837094	1.00009690105799	loss	NaN	n/a	n/a
370.313105763722	3.00709158842801	decision	1.79958323485334	right	B
373.863251160627	1.01648374702199	win	NaN	n/a	n/a
378.764053145249	3.00680843202281	decision	1.54862335580401	right	B
382.313034823688	1.01666668176767	loss	NaN	n/a	n/a
387.213140690379	3.00679364026291	decision	1.29945327874157	right	B
390.762875238812	1.00016421862529	loss	NaN	n/a	n/a
397.76309107765	3.00679424399277	decision	1.79963817563839	right	B
401.313155874581	1.01655680016847	loss	NaN	n/a	n/a
404.112933817174	3.00761080908705	decision	1.81312040454941	left	B
407.663005557173	1.01663075893885	loss	NaN	n/a	n/a
414.679845815612	3.00668436242267	decision	1.55016109423013	right	B
418.229590929579	1.01671800008626	win	NaN	n/a	n/a
421.029885074124	3.00659953625291	decision	1.80010336113628	right	B
424.579654337896	1.0000425640028	loss	NaN	n/a	n/a
429.463123710069	3.00644558126805	decision	2.06617316551274	left	B
433.012810864515	1.00011259841267	loss	NaN	n/a	n/a
435.779605313786	3.00664421339752	decision	1.79947274952428	right	B
439.329891081376	1.01639318530215	win	NaN	n/a	n/a
442.129916257545	3.00595473663998	decision	1.55000864865724	left	B
445.679393006867	1.0170352680725	win	NaN	n/a	n/a
448.46297398131	3.00681205448927	decision	1.79936769788037	right	B
452.012845579855	1.00004135651398	win	NaN	n/a	n/a
456.896354497294	3.00670428603189	decision	1.549587536545	left	B
460.446127987292	1.00030277809128	win	NaN	n/a	n/a
465.346507652313	3.00696389636141	decision	1.79943954353803	left	B
468.896106056258	1.00015033248928	loss	NaN	n/a	n/a
475.896267859905	3.00689356005751	decision	1.79964662806015	right	B
479.446195304859	1.01643816428259	loss	NaN	n/a	n/a
484.39623088052	3.00736297178082	decision	1.79980390364653	left	B
487.946175834077	1.01633703699918	loss	NaN	n/a	n/a
490.76278256395	3.00688450390589	decision	1.54930770074134	right	B
494.312481491448	1.0001771991374	win	NaN	n/a	n/a
497.09627890843	3.00707407982554	decision	1.79969311642344	left	B
500.645977534034	1.00003592282883	win	NaN	n/a	n/a
