onset	duration	trial_type	rt	resp	gender
0.9682515999302268	3.0073267999105155	decision	2.0712446998804808	left	A
4.53165420005098	1.0161079000681639	win	n/a	n/a	n/a
11.809006500057876	3.0065875998698175	decision	1.7992667998187244	right	A
15.356107899919152	1.0165630001574755	loss	n/a	n/a	n/a
18.23696959996596	3.0070651001296937	decision	1.800032100174576	right	A
21.800861299969256	1.0160583001561463	win	n/a	n/a	n/a
24.76529010012746	3.0068506998941302	decision	1.7979366998188198	left	A
28.328906300012022	1.015718299895525	win	n/a	n/a	n/a
33.358032799791545	3.0059926002286375	decision	1.8131265002302825	right	A
36.905582199804485	1.015300600323826	loss	n/a	n/a	n/a
44.06591850006953	3.006734899710864	decision	1.5489455997012556	left	A
47.61279059993103	1.0161693999543786	loss	n/a	n/a	n/a
52.559097399935126	3.006417099852115	decision	1.7984976000152528	left	A
56.105919799767435	1.0158427003771067	win	n/a	n/a	n/a
61.119007600005716	3.0104566998779774	decision	1.5479787001386285	right	A
64.68246649997309	1.016111799981445	loss	n/a	n/a	n/a
67.71378860017285	3.0086806998588145	decision	1.548632999882102	left	A
71.27702660020441	1.015993199776858	win	n/a	n/a	n/a
74.22415000014007	3.0082966000773013	decision	2.0657560997642577	left	A
77.7883299998939	1.015982300043106	win	n/a	n/a	n/a
80.73550469987094	3.0089660002849996	decision	1.5489424001425505	right	A
84.29997370019555	1.0158678996376693	loss	n/a	n/a	n/a
89.34572339989245	3.0058508003130555	decision	2.0653524002991617	right	A
92.89281029999256	1.0160452998243272	loss	n/a	n/a	n/a
95.8405307000503	3.008119899779558	decision	2.0656143999658525	left	A
99.40407640021294	1.0156065998598933	win	n/a	n/a	n/a
106.63111410010606	3.0086222998797894	decision	1.8001625998876989	right	A
110.19469140004367	1.0159462997689843	win	n/a	n/a	n/a
113.12594139995053	3.0083905002102256	decision	1.799664800055325	right	A
116.68953449977562	1.0156491002999246	win	n/a	n/a	n/a
123.9003674001433	3.0091860997490585	decision	2.3140245997346938	right	A
127.46418939996511	1.0156382001005113	win	n/a	n/a	n/a
133.0765332998708	3.007456200197339	decision	1.7985093002207577	left	A
136.6398271000944	1.0158873000182211	win	n/a	n/a	n/a
141.60245419992134	3.005787600297481	decision	1.5491180000826716	right	A
145.1493895999156	1.0161472000181675	win	n/a	n/a	n/a
150.24529760004953	3.008242500014603	decision	1.2995965997688472	left	A
153.80931140016764	1.0157357999123633	win	n/a	n/a	n/a
167.44988919980824	3.0067086000926793	decision	2.063247899990529	left	A
171.01181050017476	1.0157385999336839	loss	n/a	n/a	n/a
178.28937930008397	3.0082698999904096	decision	2.3151151998899877	right	A
181.85322500020266	1.0157684995792806	win	n/a	n/a	n/a
189.1636308999732	3.008089100010693	decision	2.3149775001220405	left	A
192.7272202000022	1.0158750000409782	loss	n/a	n/a	n/a
197.79000810021535	3.3381519997492433	decision	3.3310600998811424	left	A
201.67015099991113	1.0157777001149952	loss	n/a	n/a	n/a
204.65089110005647	3.07354489993304	decision-missed	n/a	n/a	A
208.26474650017917	1.0158814997412264	loss	n/a	n/a	n/a
211.3124563000165	3.007290099747479	decision	2.314205000177026	left	A
214.8759335000068	1.0156658999621868	win	n/a	n/a	n/a
222.08785209991038	3.0081561002880335	decision	1.814310200046748	left	A
225.6503133000806	1.016193199902773	loss	n/a	n/a	n/a
232.8948089000769	3.0082815000787377	decision	2.8307521999813616	left	A
236.45905049983412	1.014733700081706	win	n/a	n/a	n/a
241.45433320011944	3.0069225998595357	decision	2.564210799988359	left	A
245.01778359990567	1.0158404000103474	loss	n/a	n/a	n/a
247.98214199999347	3.0078464997932315	decision	2.0627740998752415	right	A
251.54583089984953	1.0155972000211477	win	n/a	n/a	n/a
256.57517520012334	3.00728049967438	decision	1.5484158000908792	left	A
260.1390488999896	1.0153915998525918	loss	n/a	n/a	n/a
262.98637589998543	3.0062513002194464	decision	2.0648893998004496	left	A
266.53336649993435	1.0159936002455652	loss	n/a	n/a	n/a
269.39858460007235	3.0060231001116335	decision	2.0631895000115037	left	A
272.9447821001522	1.0159473000094295	loss	n/a	n/a	n/a
275.8091657999903	3.008369700051844	decision	2.0628746999427676	left	A
279.372812199872	1.0159722003154457	win	n/a	n/a	n/a
286.50052839983255	3.00695569999516	decision	1.5488899000920355	left	A
290.0643497998826	1.0155867002904415	loss	n/a	n/a	n/a
292.9953068001196	3.006334399804473	decision	1.7986908997409046	left	A
296.5428713001311	1.0153973996639252	loss	n/a	n/a	n/a
301.571746500209	3.008010399993509	decision	2.3148385998792946	left	A
305.13567199977115	1.015153200365603	win	n/a	n/a	n/a
312.1963907000609	3.0069777998141944	decision	2.06551230000332	left	A
315.75989700015634	1.0157546997070312	loss	n/a	n/a	n/a
322.93717559985816	3.0071084001101553	decision	2.0645757000893354	left	A
326.50120759988204	1.0152437998913229	win	n/a	n/a	n/a
329.46550570009276	3.00628719991073	decision	1.7994808997027576	right	A
333.0123946000822	1.0162873999215662	loss	n/a	n/a	n/a
335.90992690017447	3.0088167996145785	decision	2.314638499636203	right	A
339.4739895001985	1.0155877997167408	loss	n/a	n/a	n/a
346.601205999963	3.006943200249225	decision	1.798200000077486	right	A
350.1483998000622	1.015823199879378	loss	n/a	n/a	n/a
353.0959068997763	3.0078960000537336	decision	2.314764400012791	right	A
356.65974389994517	1.0158949000760913	loss	n/a	n/a	n/a
361.72223140019923	3.006524299737066	decision	2.0650487998500466	right	A
365.26910040015355	1.0162496999837458	win	n/a	n/a	n/a
374.5448722001165	3.0073718996718526	decision	2.831117699854076	right	A
378.10876089986414	1.0157278003171086	loss	n/a	n/a	n/a
381.00617739977315	3.0070271003060043	decision	2.579200900159776	left	A
384.553489100188	1.015714899636805	win	n/a	n/a	n/a
387.4345118999481	3.088764099869877	decision	3.0804126001894474	right	A
391.0647946000099	1.0157520999200642	loss	n/a	n/a	n/a
393.9456092999317	3.0070441998541355	decision	2.5652548000216484	left	A
397.4930602000095	1.0155032998882234	loss	n/a	n/a	n/a
402.5222207000479	3.006189899984747	decision	2.830015799961984	right	A
406.0692358999513	1.0154528999701142	loss	n/a	n/a	n/a
413.4297541999258	3.3377507999539375	decision	3.33001619996503	right	A
417.3100013001822	1.0158333997242153	loss	n/a	n/a	n/a
424.45428400021046	3.0862219999544322	decision	3.080225399695337	right	A
428.08451819978654	1.0154537004418671	loss	n/a	n/a	n/a
435.2619238002226	3.0059588998556137	decision	2.5641442998312414	left	A
438.80868340004236	1.0165971000678837	win	n/a	n/a	n/a
443.9212862001732	3.0070038000121713	decision	2.314820099622011	right	A
447.46840059990063	1.015967800281942	win	n/a	n/a	n/a
450.39935969980434	3.007433900143951	decision	2.0662314002402127	left	A
453.963229900226	1.0162473996169865	loss	n/a	n/a	n/a
459.0274269999936	3.0073808999732137	decision	2.063900699838996	left	A
462.5890353000723	1.016090199816972	win	n/a	n/a	n/a
467.6359704998322	3.006855500396341	decision	2.0643569002859294	left	A
471.1992930001579	1.015672399662435	win	n/a	n/a	n/a
474.21338229998946	3.0088713001459837	decision	2.314738300163299	left	A
477.77700180001557	1.0156338000670075	win	n/a	n/a	n/a
480.72469899989665	3.0081505002453923	decision	2.0656921002082527	left	A
484.28838239982724	1.015726000070572	win	n/a	n/a	n/a
487.23652980010957	3.0085992999374866	decision	2.3134407997131348	left	A
490.7997146002017	1.0159730999730527	win	n/a	n/a	n/a
498.01105079986155	3.0094237001612782	decision	2.830300800036639	right	A
501.5744950999506	1.0157289998605847	win	n/a	n/a	n/a
508.7361727999523	3.009418800007552	decision	2.8298237998969853	left	A
512.2988506997935	1.0160603001713753	loss	n/a	n/a	n/a
