onset	duration	trial_type	rt	resp	gender
0.6826341000851244	3.005344499833882	decision	2.053908299887553	right	B
4.235517800087109	1.0010361999738961	loss	n/a	n/a	n/a
11.225066599901766	3.0038940999656916	decision	2.801996099995449	right	B
14.77751799998805	1.00113940006122	win	n/a	n/a	n/a
21.733281099935994	3.0039101999718696	decision	2.8017555000260472	right	B
25.286370999878272	1.00074310018681	loss	n/a	n/a	n/a
32.258628600044176	3.003933700034395	decision	2.8025879999622703	left	B
35.811493299901485	1.0009369000326842	loss	n/a	n/a	n/a
38.580295599997044	3.004028799943626	decision	2.802830999949947	right	B
42.13327599992044	1.0009767001029104	loss	n/a	n/a	n/a
44.8856840999797	3.0049443999305367	decision	2.552343799965456	right	B
48.438604899914935	1.0007738000713289	win	n/a	n/a	n/a
51.19096120004542	3.0055326998699456	decision	2.051871699979529	left	B
54.74377309996635	1.0009101000614464	win	n/a	n/a	n/a
59.597908299881965	3.0047518000938	decision	2.5514214001595974	left	B
63.150693899951875	1.0011160001158714	loss	n/a	n/a	n/a
68.00502529996447	3.0051847000140697	decision	2.051731999963522	left	B
71.55753770004958	1.000921499915421	win	n/a	n/a	n/a
74.30989390006289	3.0040020998567343	decision	2.052034599939361	right	B
77.86282010003924	1.0006287000142038	win	n/a	n/a	n/a
82.80052460008301	3.0129638998769224	decision	2.301930099958554	left	B
86.36985759995878	1.000802000053227	loss	n/a	n/a	n/a
93.37617380009033	3.004984200000763	decision	2.301623099949211	left	B
96.9285319999326	1.0008354000747204	loss	n/a	n/a	n/a
104.05114590004086	3.0038343998603523	decision	2.8023702998179942	right	B
107.60405760002322	1.0014279999304563	win	n/a	n/a	n/a
114.59405239997432	3.005102999974042	decision	2.551567899994552	left	B
118.1462558999192	1.0007617000956088	win	n/a	n/a	n/a
123.00028569996357	3.0042920000851154	decision	2.302010799990967	right	B
126.5529888998717	1.0008189000654966	win	n/a	n/a	n/a
129.3053091999609	3.005058699985966	decision	2.551643199985847	right	B
132.85823190002702	1.0006190000567585	win	n/a	n/a	n/a
135.6104486999102	3.3068071000743657	decision	3.3028500999789685	left	B
139.46370010008104	1.0007378999143839	loss	n/a	n/a	n/a
142.21605519996956	3.3232412999495864	decision	3.3193783999886364	right	B
146.0858292998746	1.0008151000365615	loss	n/a	n/a	n/a
155.3267355998978	3.0514941001310945	decision-missed	n/a	n/a	B
158.92966999998316	1.0008169999346137	loss	n/a	n/a	n/a
163.78364869998768	3.004632700001821	decision	2.0517070998903364	right	B
167.33645100006834	1.0008625998161733	win	n/a	n/a	n/a
170.08904389990494	3.0040637999773026	decision	2.051024200161919	right	B
173.64199969987385	1.0006678001955152	loss	n/a	n/a	n/a
180.66424220008776	3.323886299971491	decision	3.319645799929276	right	B
184.534118300071	1.000848799943924	loss	n/a	n/a	n/a
187.28633129992522	3.0040103001520038	decision	2.802367800148204	right	B
190.83934350009076	1.000810399884358	win	n/a	n/a	n/a
193.59160430007614	3.0038504998665303	decision	2.8025657997932285	right	B
197.14449899992906	1.0007621999830008	win	n/a	n/a	n/a
204.40044269990176	3.0046703000552952	decision	2.3016698001883924	right	B
207.9537259999197	1.000535200117156	loss	n/a	n/a	n/a
215.176075699972	3.0537757000420243	decision-missed	n/a	n/a	B
218.77933809999377	1.0005874000489712	loss	n/a	n/a	n/a
223.64979439997114	3.00490349996835	decision	1.799675100017339	right	B
227.20260379998945	1.0007462999783456	loss	n/a	n/a	n/a
230.00481220008805	3.0042169999796897	decision	1.8010812997817993	left	B
233.55789789999835	1.0007692999206483	loss	n/a	n/a	n/a
240.5637173000723	3.004814999876544	decision	2.051707699894905	left	B
244.11731810006313	1.0000090999528766	loss	n/a	n/a	n/a
246.88572910008952	3.0046764998696744	decision	1.8015158998314291	left	B
250.43878840003163	1.00090519990772	win	n/a	n/a	n/a
253.19160060002469	3.0133205000311136	decision	2.3012180998921394	right	B
256.7602770999074	1.000914900097996	loss	n/a	n/a	n/a
259.51265960000455	3.0041724999900907	decision	1.8020152000244707	right	B
263.06555980001576	1.0006784000433981	win	n/a	n/a	n/a
267.9364074000623	3.012174499919638	decision	2.3020091999787837	right	B
271.4891222999431	1.0008026999421418	win	n/a	n/a	n/a
274.24137569987215	3.0038612000644207	decision	2.8023285001982003	right	B
277.7943895999342	1.0006818999536335	win	n/a	n/a	n/a
282.6650688999798	3.0052014999091625	decision	2.551958499941975	right	B
286.2177760999184	1.0009837001562119	win	n/a	n/a	n/a
293.2237201000098	3.004941700026393	decision	2.5526032999623567	left	B
296.77644579997286	1.001044699922204	win	n/a	n/a	n/a
303.882505599875	3.0047769001685083	decision	2.0514197000302374	right	B
307.43537830002606	1.0007027999963611	win	n/a	n/a	n/a
310.2214951000642	3.004737599985674	decision	2.051501699956134	right	B
313.77402179990895	1.0006042001768947	loss	n/a	n/a	n/a
316.55969789996743	3.0051629999652505	decision	2.3018910998944193	left	B
320.1125880999025	1.0007646000012755	win	n/a	n/a	n/a
324.9832574999891	3.0040172000881284	decision	2.0520333000458777	right	B
328.53614240000024	1.0006190999411047	loss	n/a	n/a	n/a
335.5586844999343	3.0038980999961495	decision	2.8019119000528008	left	B
339.11146929999813	1.0008461000397801	win	n/a	n/a	n/a
346.13425079989247	3.0046198000200093	decision	1.8013170000631362	right	B
349.6869717000518	1.0009381999261677	win	n/a	n/a	n/a
362.99794270005077	3.00440840004012	decision	2.3017247000243515	right	B
366.5508059000131	1.0008336999453604	loss	n/a	n/a	n/a
371.4216082999483	3.0043202999513596	decision	2.0518293001223356	right	B
374.9743864000775	1.0007974999025464	win	n/a	n/a	n/a
379.8451535999775	3.004507299978286	decision	1.8000922999344766	right	B
383.3980288999155	1.0007122000679374	loss	n/a	n/a	n/a
388.25203009997495	3.005464999936521	decision	2.0518950999248773	left	B
391.8049689999316	1.0008104001171887	loss	n/a	n/a	n/a
398.8274302999489	3.00587709993124	decision	1.5345683000050485	left	B
402.38035569991916	1.000830200035125	loss	n/a	n/a	n/a
405.14937569992617	3.004794199950993	decision	2.0515400001313537	right	B
408.7021711000707	1.0008665998466313	loss	n/a	n/a	n/a
415.7077452999074	3.0132621000520885	decision	2.0523423000704497	right	B
419.26130670006387	1.0002089999616146	win	n/a	n/a	n/a
422.14674729993567	3.004279100103304	decision	2.051772400038317	right	B
425.69948130007833	1.0009284999687225	loss	n/a	n/a	n/a
430.5543835000135	3.0050884999800473	decision	1.8007429998833686	left	B
434.1064792999532	1.000751200132072	loss	n/a	n/a	n/a
436.8588491000701	3.005317599978298	decision	2.051604399923235	left	B
440.4117224998772	1.0006911000236869	win	n/a	n/a	n/a
443.16403099987656	3.00369290006347	decision	1.5515317001845688	right	B
446.7166810000781	1.0013567998539656	win	n/a	n/a	n/a
449.6194148999639	3.0057302999775857	decision	1.7988823000341654	right	B
453.17213100008667	1.000927799846977	win	n/a	n/a	n/a
458.04294939991087	3.0045582000166178	decision	1.8003283001016825	left	B
461.5964293999132	1.0018629999831319	win	n/a	n/a	n/a
466.4832363999449	3.004622000036761	decision	1.5344029001425952	right	B
470.03612249996513	1.000798099907115	loss	n/a	n/a	n/a
477.0585294000339	3.004634999902919	decision	1.8014467000029981	right	B
480.61162599991076	1.0008431000169367	loss	n/a	n/a	n/a
485.53253259998746	3.0046639998909086	decision	1.8011547999922186	right	B
489.08521940000355	1.0006291000172496	loss	n/a	n/a	n/a
492.13778349990025	3.0043868999928236	decision	1.8013423001393676	right	B
495.6906218000222	1.0006653000600636	win	n/a	n/a	n/a
498.49293609987944	3.005246500018984	decision	2.0519753000698984	left	B
502.04574159998447	1.0007545000407845	win	n/a	n/a	n/a
