TrialNumber,Trialn,Blockn,BlockType,Partner,Feedback,ITI,ran,order,decision_onset,resp,resp_onset,rt,outcome_val,outcome_onset,outcome_offset,trialDuration,ITIonset,ITIoffset
1,1,1,1,1,1,0.75,1.0,0.0,4.018857,3.0,4.9583187,0.9394617,3.0,6.53643,7.54822,3.529363,7.5484653,8.31024
2,2,1,1,1,1,0.75,1.0,1.0,8.313839,3.0,9.045101,0.7312617,2.0,10.830573,11.838833,3.5249934,11.839011,12.597337
3,3,1,1,1,1,0.75,1.0,2.0,12.599833,2.0,13.064764,0.46493167,7.0,15.118421,16.127285,3.527452,16.127464,16.884525
4,4,1,1,3,1,0.75,1.0,3.0,16.890408,3.0,18.085594,1.195186,1.0,19.406914,20.415686,3.5252774,20.415874,21.171202
5,5,1,1,3,2,0.75,1.0,4.0,21.173412,2.0,21.905712,0.7322992,5.0,23.690004,24.699991,3.526578,24.700176,25.45845
6,6,1,1,3,1,0.75,1.0,5.0,25.460522,2.0,26.058914,0.59839296,8.0,27.97762,28.988523,3.528003,28.988699,29.74494
7,7,1,1,2,2,0.75,1.0,6.0,29.750818,2.0,31.146553,1.3957338,5.0,32.268,33.27686,3.5260398,33.27705,34.031857
8,8,1,1,2,1,12,1.0,7.0,34.035,2.0,34.599144,0.5641451,6.0,36.55203,37.56276,3.527758,37.562946,49.57804
9,9,2,5,3,3,0.75,1.0,8.0,49.58281,3.0,50.61273,1.0299193,7.0,52.100582,53.110794,3.527984,53.110985,53.864807
10,10,2,5,3,1,0.75,1.0,9.0,53.86693,3.0,54.298664,0.43173584,1.0,56.38481,57.39468,3.5277503,57.39486,58.151913
11,11,2,5,3,1,0.75,1.0,10.0,58.15401,2.0,59.052902,0.8988926,9.0,60.670998,61.679844,3.5258346,61.68002,62.43869
12,12,2,5,3,1,0.75,1.0,11.0,62.440796,3.0,63.039265,0.5984687,1.0,64.95846,65.96561,3.5248067,65.96578,66.72535
13,13,2,5,3,1,0.75,1.0,12.0,66.72746,3.0,67.07597,0.34851173,3.0,69.245,70.25255,3.525091,70.25275,71.012276
14,14,2,5,3,1,0.75,1.0,13.0,71.014366,2.0,71.47956,0.46519792,7.0,73.530975,74.53888,3.524512,74.53906,75.299095
15,15,2,5,3,2,0.75,1.0,14.0,75.30118,2.0,76.15031,0.8491282,5.0,77.81835,78.82784,3.5266657,78.828026,79.58602
16,16,2,5,3,1,8,1.0,15.0,79.58809,2.0,80.220245,0.6321536,6.0,82.105995,83.11572,3.5276318,83.115906,91.12898
17,17,3,6,3,3,0.75,1.0,16.0,91.13206,3.0,91.696365,0.5643075,9.0,93.6499,94.65941,3.5273511,94.659584,95.41587
18,18,3,6,3,3,0.75,1.0,17.0,95.41795,3.0,95.7997,0.38173926,9.0,97.93596,98.94345,3.5254984,98.94369,99.70269
19,19,3,6,3,3,0.75,1.0,18.0,99.70479,3.0,100.20359,0.4988061,6.0,102.222145,103.22954,3.524751,103.22971,103.98964
20,20,3,6,3,3,0.75,1.0,19.0,103.99172,3.0,104.35678,0.36505803,6.0,106.50799,107.516365,3.5246477,107.51657,108.276436
21,21,3,6,3,1,0.75,1.0,20.0,108.27847,3.0,108.72695,0.44847685,1.0,110.795654,111.80486,3.526391,111.805046,112.56329
22,22,3,6,3,3,0.75,1.0,21.0,112.5654,3.0,113.01383,0.4484352,6.0,115.08274,116.09182,3.526423,116.09201,116.84996
23,23,3,6,3,2,0.75,1.0,22.0,116.852036,3.0,117.73447,0.88243055,5.0,119.36941,120.37836,3.5263205,120.37853,121.13714
24,24,3,6,3,3,10,1.0,23.0,121.1392,3.0,122.28814,1.1489426,6.0,123.65724,124.66685,3.5276487,124.66702,134.68153
25,25,4,5,3,1,0.75,1.0,24.0,134.68456,3.0,135.66588,0.9813243,2.0,137.20256,138.21219,3.5276277,138.21237,138.96828
26,26,4,5,3,1,0.75,1.0,25.0,138.97032,2.0,139.80264,0.83232105,9.0,141.48781,142.49577,3.5254543,142.49596,143.25523
27,27,4,5,3,3,0.75,1.0,26.0,143.25732,3.0,143.62257,0.36524457,9.0,145.77396,146.78233,3.5250027,146.78256,147.54219
28,28,4,5,3,2,0.75,1.0,27.0,147.54433,3.0,148.07632,0.53198594,5.0,150.0619,151.0718,3.527462,151.07198,151.82904
29,29,4,5,3,1,0.75,1.0,28.0,151.83112,3.0,152.47966,0.64853925,3.0,154.34897,155.35811,3.52699,155.35829,156.11575
30,30,4,5,3,1,0.75,1.0,29.0,156.11781,3.0,156.83348,0.71566504,1.0,158.63495,159.64282,3.52502,159.64304,160.4026
31,31,4,5,3,1,0.75,1.0,30.0,160.40468,3.0,161.20372,0.7990404,2.0,162.92073,163.92758,3.5229144,163.92776,164.68962
32,32,4,5,3,1,8,1.0,31.0,164.69208,2.0,165.60728,0.9151992,6.0,167.20934,168.21709,3.5249987,168.2173,176.23282
33,33,5,2,1,3,0.75,1.0,32.0,176.23903,3.0,176.95015,0.71110886,8.0,178.75496,179.76518,3.5261402,179.76535,180.51932
34,34,5,2,1,3,0.75,1.0,33.0,180.52275,3.0,180.88664,0.36390156,7.0,183.04044,184.04782,3.5250812,184.04802,184.80638
35,35,5,2,1,3,0.75,1.0,34.0,184.80882,3.0,185.2902,0.4813913,7.0,187.3262,188.33385,3.525023,188.33406,189.093
36,36,5,2,1,1,0.75,1.0,35.0,189.09529,3.0,189.99405,0.8987598,4.0,191.61295,192.6238,3.528494,192.62398,193.3799
37,37,5,2,1,3,0.75,1.0,36.0,193.38245,2.0,194.53102,1.1485606,2.0,195.89993,196.9088,3.5263412,196.90898,197.66667
38,38,5,2,1,1,0.75,1.0,37.0,197.66907,3.0,198.23407,0.5649985,2.0,200.1877,201.24379,3.574718,201.24397,202.00375
39,39,5,2,1,3,0.75,1.0,38.0,202.00612,2.0,202.42102,0.41490036,1.0,204.52435,205.53378,3.5276499,205.53397,206.29053
40,40,5,2,1,3,12,1.0,39.0,206.2929,2.0,206.70795,0.41505432,2.0,208.81021,209.81776,3.5248725,209.81795,221.82008
41,41,6,4,2,2,0.75,1.0,40.0,221.82541,2.0,222.63771,0.8123081,5.0,224.34189,225.35077,3.5253625,225.35095,226.1071
42,42,6,4,2,3,0.75,1.0,41.0,226.11055,2.0,226.70789,0.5973319,1.0,228.6279,229.63676,3.5262167,229.63696,230.39383
43,43,6,4,2,3,0.75,1.0,42.0,230.39594,2.0,230.8778,0.4818731,4.0,232.9129,233.92068,3.524757,233.92087,234.68068
44,44,6,4,2,3,0.75,1.0,43.0,234.6828,2.0,235.24796,0.5651585,4.0,237.20001,238.20811,3.5253146,238.20833,238.96764
45,45,6,4,2,3,0.75,1.0,44.0,238.96974,2.0,239.96867,0.9989347,3.0,241.48792,242.4957,3.5259595,242.49588,243.25456
46,46,6,4,2,3,0.75,1.0,45.0,243.25667,2.0,243.6715,0.4148282,4.0,245.77393,246.78177,3.5250936,246.78195,247.5411
47,47,6,4,2,2,0.75,1.0,46.0,247.54323,2.0,247.90848,0.3652485,5.0,250.05989,251.06915,3.5259285,251.06934,251.82816
48,48,6,4,2,3,10,1.0,47.0,251.83023,3.0,252.12863,0.29840285,6.0,254.3474,255.35707,3.5268407,255.35725,265.3725
49,49,7,3,2,1,0.75,1.0,48.0,265.37567,3.0,265.9234,0.54771805,2.0,267.89392,268.90274,3.5270617,268.90292,269.6595
50,50,7,3,2,2,0.75,1.0,49.0,269.66156,2.0,270.0766,0.41504616,5.0,272.17883,273.18774,3.5262113,273.18793,273.9464
51,51,7,3,2,1,0.75,1.0,50.0,273.9485,2.0,274.4304,0.48190328,8.0,276.4669,277.4757,3.5271978,277.4759,278.23322
52,52,7,3,2,1,0.75,1.0,51.0,278.2353,3.0,278.63406,0.39878544,3.0,280.75275,281.76117,3.525902,281.76138,282.52017
53,53,7,3,2,1,0.75,1.0,52.0,282.52222,2.0,282.8717,0.34947863,6.0,285.03857,286.04575,3.5235481,286.04593,286.80725
54,54,7,3,2,3,0.75,1.0,53.0,286.80933,2.0,287.30786,0.49855614,3.0,289.32687,290.33673,3.5274112,290.3369,291.0939
55,55,7,3,2,1,0.75,1.0,54.0,291.096,2.0,291.46106,0.3650399,9.0,293.6119,294.62073,3.5247288,294.62094,295.38058
56,56,7,3,2,1,12,1.0,55.0,295.38278,2.0,296.14838,0.7655937,6.0,297.89987,298.90674,3.5239618,298.90692,310.91013
57,57,8,4,2,3,0.75,1.0,56.0,310.9134,2.0,311.74454,0.8311386,1.0,313.43008,314.4399,3.5265172,314.4401,315.19714
58,58,8,4,2,3,0.75,1.0,57.0,315.19925,2.0,315.64777,0.44849253,2.0,317.71695,318.72482,3.5255485,318.725,319.48407
59,59,8,4,2,3,0.75,1.0,58.0,319.48615,2.0,319.88464,0.398518,1.0,322.00336,323.01074,3.5245945,323.01093,323.7708
60,60,8,4,2,1,0.75,1.0,59.0,323.7729,2.0,324.25485,0.4819682,7.0,326.29086,327.30002,3.5271518,327.30023,328.0577
61,61,8,4,2,3,0.75,1.0,60.0,328.05984,2.0,328.7919,0.7320577,2.0,330.57797,331.58774,3.5279016,331.58792,332.34427
62,62,8,4,2,2,0.75,1.0,61.0,332.34637,2.0,333.09558,0.7491984,5.0,334.86386,335.87274,3.5263708,335.87292,336.63147
63,63,8,4,2,3,0.75,1.0,62.0,336.6338,2.0,336.98206,0.34828684,3.0,339.1507,340.15952,3.5257266,340.15967,340.9182
64,64,8,4,2,3,10,1.0,63.0,340.92035,2.0,341.6025,0.68218035,2.0,343.4369,344.44446,3.5241227,344.44464,354.44598
65,65,9,6,3,2,0.75,1.0,64.0,354.45065,3.0,355.18036,0.72971636,5.0,356.96783,357.97665,3.5260074,357.97684,358.73294
66,66,9,6,3,2,0.75,1.0,65.0,358.73505,3.0,359.1002,0.3651356,5.0,361.25284,362.26077,3.5257196,362.26096,363.01978
67,67,9,6,3,3,0.75,1.0,66.0,363.02194,3.0,363.33752,0.3155713,8.0,365.53885,366.54776,3.5258048,366.54794,367.30713
68,68,9,6,3,3,0.75,1.0,67.0,367.30927,3.0,367.72403,0.4147793,8.0,369.82684,370.83368,3.524436,370.83386,371.59357
69,69,9,6,3,3,0.75,1.0,68.0,371.59573,3.0,372.06088,0.46515533,9.0,374.1128,375.1207,3.5249703,375.1209,375.8806
70,70,9,6,3,3,0.75,1.0,69.0,375.8827,3.0,376.31448,0.43180466,9.0,378.39984,379.4071,3.524406,379.4073,380.16714
71,71,9,6,3,3,0.75,1.0,70.0,380.16922,3.0,380.45126,0.28202832,6.0,382.6871,383.6947,3.5254846,383.69492,384.45407
72,72,9,6,3,3,8,1.0,71.0,384.45636,3.0,384.805,0.34864303,9.0,386.97272,387.97952,3.523154,387.9797,395.9803
﻿TrialNumber,Trialn,Blockn,BlockType,Partner,Feedback,ITI,ran,order,decision_onset,resp,resp_onset,rt,outcome_val,outcome_onset,outcome_offset,trialDuration,ITIonset,ITIoffset
1,1,1,5,3,1,0.750000,1.0,0.0,4.0152383,0.0,999.0,999.0,999.0,6.5205054,7.5375795,3.5223415,7.5377984,8.288133
2,2,1,5,3,2,0.750000,1.0,1.0,8.290679,0.0,999.0,999.0,999.0,10.807144,11.823291,3.5326114,11.8234625,12.5742035
3,3,1,5,3,1,0.750000,1.0,2.0,12.5764675,2.0,13.959153,1.3826858,9.0,15.093426,16.113686,3.5372174,16.113861,16.877281
4,4,1,5,3,1,0.750000,1.0,3.0,16.879614,0.0,999.0,999.0,999.0,19.396294,20.412645,3.5330327,20.412823,21.163568
5,5,1,5,3,2,0.750000,1.0,4.0,21.165852,3.0,21.76427,0.598418,5.0,23.682919,24.69519,3.5293384,24.695366,25.449797
6,6,1,5,3,1,0.750000,1.0,5.0,25.452076,0.0,999.0,999.0,999.0,27.952522,28.968544,3.5164688,28.968718,29.719791
7,7,1,5,3,1,0.750000,1.0,6.0,29.722086,2.0,30.686913,0.9648261,7.0,32.23991,33.251587,3.5295007,33.251774,34.00588
8,8,1,5,3,1,8,1.0,7.0,34.008213,0.0,999.0,999.0,999.0,36.525177,37.541176,3.5329647,37.54135,45.547436
9,9,2,3,2,1,0.750000,1.0,8.0,45.850143,3.0,47.382717,1.5325738,3.0,48.367393,49.378864,3.5287204,49.37904,50.13423
10,10,2,3,2,2,0.750000,1.0,9.0,50.430286,2.0,51.268543,0.8382594,5.0,52.947388,53.95861,3.5283244,53.958782,54.720577
11,11,2,3,2,1,0.750000,1.0,10.0,55.004356,3.0,56.155247,1.1508881,3.0,57.52223,58.532948,3.5285919,58.533127,59.290695
12,12,2,3,2,1,0.750000,1.0,11.0,59.567936,3.0,60.37465,0.8067135,2.0,62.086876,63.098103,3.5301664,63.09828,63.860584
13,13,2,3,2,1,0.750000,1.0,12.0,64.137054,2.0,64.76185,0.6247905,6.0,66.654366,67.665146,3.5280895,67.66532,68.43047
14,14,2,3,2,1,0.750000,1.0,13.0,68.70761,2.0,69.214554,0.5069461,7.0,71.2263,72.235916,3.5283031,72.23609,73.000626
15,15,2,3,2,1,0.750000,1.0,14.0,73.278496,2.0,73.901505,0.6230127,6.0,75.79576,76.80533,3.5268326,76.8055,77.5704
16,16,2,3,2,3,12,1.0,15.0,77.84835,3.0,78.68791,0.839562,6.0,80.36581,81.37708,3.528733,81.37726,93.381096
17,17,3,4,2,3,0.750000,1.0,16.0,93.681656,3.0,94.49942,0.8177634,8.0,96.19891,97.209946,3.528283,97.21012,97.96768
18,18,3,4,2,3,0.750000,1.0,17.0,98.239235,3.0,98.86911,0.6298746,7.0,100.75681,101.76692,3.527686,101.7671,102.52131
19,19,3,4,2,3,0.750000,1.0,18.0,102.79879,3.0,103.62251,0.8237186,8.0,105.316795,106.32607,3.5272787,106.32624,107.09137
20,20,3,4,2,3,0.750000,1.0,19.0,107.36948,3.0,108.30929,0.9398079,6.0,109.88706,110.89644,3.5269604,110.896614,111.66135
21,21,3,4,2,3,0.750000,1.0,20.0,111.93964,3.0,112.49481,0.5551803,8.0,114.45778,115.46721,3.527574,115.467384,116.23101
22,22,3,4,2,3,0.750000,1.0,21.0,116.509544,3.0,117.09917,0.5896268,6.0,119.02638,120.035645,3.526105,120.03582,120.80099
23,23,3,4,2,1,0.750000,1.0,22.0,121.07863,3.0,121.634895,0.5562699,3.0,123.596054,124.6065,3.527872,124.606674,125.37069
24,24,3,4,2,1,12,1.0,23.0,125.64823,2.0,126.472015,0.8237852,6.0,128.16597,129.1754,3.5271654,129.17557,141.182
25,25,4,6,3,1,0.750000,1.0,24.0,141.1858,3.0,142.38283,1.1970165,1.0,143.70325,144.71278,3.5269816,144.71297,145.46835
26,26,4,6,3,2,0.750000,1.0,25.0,145.47188,2.0,146.00243,0.5305546,5.0,147.98932,148.9999,3.5280106,149.00006,149.75468
27,27,4,6,3,3,0.750000,1.0,26.0,149.7573,0.0,999.0,999.0,999.0,152.27399,153.28987,3.5325809,153.29005,154.04117
28,28,4,6,3,3,0.750000,1.0,27.0,154.04355,3.0,154.50858,0.4650297,9.0,156.56049,157.5702,3.5266623,157.57039,158.32735
29,29,4,6,3,3,0.750000,1.0,28.0,158.32968,3.0,160.6457,2.3160303,8.0,160.8471,161.85591,3.5262341,161.85608,162.6138
30,30,4,6,3,3,0.750000,1.0,29.0,162.6162,3.0,163.08113,0.4649292,6.0,165.1345,166.14359,3.527382,166.14375,166.90018
31,31,4,6,3,3,0.750000,1.0,30.0,166.90257,0.0,999.0,999.0,999.0,169.419,170.43541,3.5328324,170.43558,171.18639
32,32,4,6,3,3,10,1.0,31.0,171.18875,0.0,999.0,999.0,999.0,173.70197,174.71895,3.5301867,174.71912,184.72958
33,33,5,2,1,3,0.750000,1.0,32.0,184.76445,0.0,999.0,999.0,999.0,187.2652,188.28166,3.517213,188.28185,189.03255
34,34,5,2,1,1,0.750000,1.0,33.0,189.03491,0.0,999.0,999.0,999.0,191.55183,192.56778,3.5328598,192.56795,193.31902
35,35,5,2,1,3,0.750000,1.0,34.0,193.32137,0.0,999.0,999.0,999.0,195.8379,196.85434,3.532969,196.8545,197.60513
36,36,5,2,1,1,0.750000,1.0,35.0,197.60738,0.0,999.0,999.0,999.0,200.1243,201.14084,3.5334516,201.141,201.89156
37,37,5,2,1,3,0.750000,1.0,36.0,201.89381,0.0,999.0,999.0,999.0,204.41113,205.42714,3.5333185,205.4273,206.17807
38,38,5,2,1,3,0.750000,1.0,37.0,206.18031,0.0,999.0,999.0,999.0,208.69696,209.71332,3.533005,209.71349,210.46432
39,39,5,2,1,3,0.750000,1.0,38.0,210.46648,0.0,999.0,999.0,999.0,212.98335,213.99945,3.5329678,213.99965,214.75069
40,40,5,2,1,3,12,1.0,39.0,214.75293,0.0,999.0,999.0,999.0,217.26973,218.28592,3.5329833,218.28609,230.295
41,41,6,1,1,1,0.750000,1.0,40.0,230.29836,0.0,999.0,999.0,999.0,232.8139,233.83061,3.5322616,233.83078,234.58154
42,42,6,1,1,2,0.750000,1.0,41.0,234.58385,--,--,--,--,--,--,--,--,--
43,43,6,1,1,3,0.750000,0.0,--,--,--,--,--,--,--,--,--,--,--
44,44,6,1,1,1,0.750000,0.0,--,--,--,--,--,--,--,--,--,--,--
45,45,6,1,1,1,0.750000,0.0,--,--,--,--,--,--,--,--,--,--,--
46,46,6,1,1,1,0.750000,0.0,--,--,--,--,--,--,--,--,--,--,--
47,47,6,1,1,1,0.750000,0.0,--,--,--,--,--,--,--,--,--,--,--
48,48,6,1,1,1,8,0.0,--,--,--,--,--,--,--,--,--,--,--
49,49,7,2,1,3,0.750000,0.0,--,--,--,--,--,--,--,--,--,--,--
50,50,7,2,1,3,0.750000,0.0,--,--,--,--,--,--,--,--,--,--,--
51,51,7,2,1,3,0.750000,0.0,--,--,--,--,--,--,--,--,--,--,--
52,52,7,2,1,3,0.750000,0.0,--,--,--,--,--,--,--,--,--,--,--
53,53,7,2,1,3,0.750000,0.0,--,--,--,--,--,--,--,--,--,--,--
54,54,7,2,1,1,0.750000,0.0,--,--,--,--,--,--,--,--,--,--,--
55,55,7,2,1,2,0.750000,0.0,--,--,--,--,--,--,--,--,--,--,--
56,56,7,2,1,3,10,0.0,--,--,--,--,--,--,--,--,--,--,--
57,57,8,1,1,3,0.750000,0.0,--,--,--,--,--,--,--,--,--,--,--
58,58,8,1,1,1,0.750000,0.0,--,--,--,--,--,--,--,--,--,--,--
59,59,8,1,1,1,0.750000,0.0,--,--,--,--,--,--,--,--,--,--,--
60,60,8,1,1,3,0.750000,0.0,--,--,--,--,--,--,--,--,--,--,--
61,61,8,1,1,1,0.750000,0.0,--,--,--,--,--,--,--,--,--,--,--
62,62,8,1,1,1,0.750000,0.0,--,--,--,--,--,--,--,--,--,--,--
63,63,8,1,1,1,0.750000,0.0,--,--,--,--,--,--,--,--,--,--,--
64,64,8,1,1,1,8,0.0,--,--,--,--,--,--,--,--,--,--,--
65,65,9,3,2,1,0.750000,0.0,--,--,--,--,--,--,--,--,--,--,--
66,66,9,3,2,1,0.750000,0.0,--,--,--,--,--,--,--,--,--,--,--
67,67,9,3,2,2,0.750000,0.0,--,--,--,--,--,--,--,--,--,--,--
68,68,9,3,2,3,0.750000,0.0,--,--,--,--,--,--,--,--,--,--,--
69,69,9,3,2,1,0.750000,0.0,--,--,--,--,--,--,--,--,--,--,--
70,70,9,3,2,1,0.750000,0.0,--,--,--,--,--,--,--,--,--,--,--
71,71,9,3,2,1,0.750000,0.0,--,--,--,--,--,--,--,--,--,--,--
72,72,9,3,2,1,10,0.0,--,--,--,--,--,--,--,--,--,--,--
﻿TrialNumber,Trialn,Blockn,BlockType,Partner,Feedback,ITI,ran,order,decision_onset,resp,resp_onset,rt,outcome_val,outcome_onset,outcome_offset,trialDuration,ITIonset,ITIoffset
1,1,1,5,3,1,0.750000,1.0,0.0,4.164299,0.0,999.0,999.0,999.0,6.6798134,7.696025,3.5317261,7.696243,8.44696
2,2,1,5,3,2,0.750000,1.0,1.0,8.572309,0.0,999.0,999.0,999.0,11.082536,12.099152,3.5268428,12.099319,12.849993
3,3,1,5,3,1,0.750000,1.0,2.0,12.974637,3.0,14.534799,1.5601616,1.0,15.4918995,16.505402,3.5307643,16.505575,17.269901
4,4,1,5,3,1,0.750000,1.0,3.0,17.390633,0.0,999.0,999.0,999.0,19.905844,20.922106,3.531474,20.922277,21.672821
5,5,1,5,3,2,0.750000,1.0,4.0,21.796265,3.0,23.474607,1.6783434,5.0,24.313498,25.325607,3.5293417,25.32578,26.076212
6,6,1,5,3,1,0.750000,1.0,5.0,26.197634,3.0,28.544767,2.3471355,4.0,28.714466,29.726042,3.5284083,29.726213,30.479254
7,7,1,5,3,1,0.750000,1.0,6.0,30.60315,2.0,32.13032,1.5271723,9.0,33.120388,34.13095,3.5278018,34.131126,34.882107
8,8,1,5,3,1,8,1.0,7.0,35.00664,3.0,36.35082,1.3441788,3.0,37.52331,38.53342,3.5267806,38.533596,46.54034
9,9,2,3,2,1,0.750000,1.0,8.0,46.604515,0.0,999.0,999.0,999.0,49.109642,50.12644,3.52192,50.126606,50.877235
10,10,2,3,2,2,0.750000,1.0,9.0,50.917057,3.0,52.21173,1.294676,5.0,53.43475,54.444443,3.527385,54.444614,55.19672
11,11,2,3,2,1,0.750000,1.0,10.0,55.2356,3.0,56.314526,1.0789233,3.0,57.753532,58.763355,3.527753,58.763527,59.51663
12,12,2,3,2,1,0.750000,1.0,11.0,59.555557,3.0,60.23396,0.6784021,4.0,62.07296,63.08168,3.526121,63.081856,63.836357
13,13,2,3,2,1,0.750000,1.0,12.0,63.87601,2.0,65.237495,1.3614873,7.0,66.393456,67.40341,3.5273974,67.40359,68.15606
14,14,2,3,2,1,0.750000,1.0,13.0,68.19617,3.0,68.973724,0.777554,2.0,70.71323,71.72317,3.5269997,71.72334,72.47603
15,15,2,3,2,1,0.750000,1.0,14.0,72.51648,3.0,73.77691,1.260427,3.0,75.033936,76.04317,3.526689,76.04334,76.79531
16,16,2,3,2,3,12,1.0,15.0,76.834496,3.0,78.646774,1.8122778,7.0,79.35208,80.3632,3.528699,80.36337,92.37299
17,17,3,4,2,3,0.750000,1.0,16.0,92.431816,--,--,--,--,--,--,--,--,--
18,18,3,4,2,3,0.750000,0.0,--,--,--,--,--,--,--,--,--,--,--
19,19,3,4,2,3,0.750000,0.0,--,--,--,--,--,--,--,--,--,--,--
20,20,3,4,2,3,0.750000,0.0,--,--,--,--,--,--,--,--,--,--,--
21,21,3,4,2,3,0.750000,0.0,--,--,--,--,--,--,--,--,--,--,--
22,22,3,4,2,3,0.750000,0.0,--,--,--,--,--,--,--,--,--,--,--
23,23,3,4,2,1,0.750000,0.0,--,--,--,--,--,--,--,--,--,--,--
24,24,3,4,2,1,12,0.0,--,--,--,--,--,--,--,--,--,--,--
25,25,4,6,3,1,0.750000,0.0,--,--,--,--,--,--,--,--,--,--,--
26,26,4,6,3,2,0.750000,0.0,--,--,--,--,--,--,--,--,--,--,--
27,27,4,6,3,3,0.750000,0.0,--,--,--,--,--,--,--,--,--,--,--
28,28,4,6,3,3,0.750000,0.0,--,--,--,--,--,--,--,--,--,--,--
29,29,4,6,3,3,0.750000,0.0,--,--,--,--,--,--,--,--,--,--,--
30,30,4,6,3,3,0.750000,0.0,--,--,--,--,--,--,--,--,--,--,--
31,31,4,6,3,3,0.750000,0.0,--,--,--,--,--,--,--,--,--,--,--
32,32,4,6,3,3,10,0.0,--,--,--,--,--,--,--,--,--,--,--
33,33,5,2,1,3,0.750000,0.0,--,--,--,--,--,--,--,--,--,--,--
34,34,5,2,1,1,0.750000,0.0,--,--,--,--,--,--,--,--,--,--,--
35,35,5,2,1,3,0.750000,0.0,--,--,--,--,--,--,--,--,--,--,--
36,36,5,2,1,1,0.750000,0.0,--,--,--,--,--,--,--,--,--,--,--
37,37,5,2,1,3,0.750000,0.0,--,--,--,--,--,--,--,--,--,--,--
38,38,5,2,1,3,0.750000,0.0,--,--,--,--,--,--,--,--,--,--,--
39,39,5,2,1,3,0.750000,0.0,--,--,--,--,--,--,--,--,--,--,--
40,40,5,2,1,3,12,0.0,--,--,--,--,--,--,--,--,--,--,--
41,41,6,1,1,1,0.750000,0.0,--,--,--,--,--,--,--,--,--,--,--
42,42,6,1,1,2,0.750000,0.0,--,--,--,--,--,--,--,--,--,--,--
43,43,6,1,1,3,0.750000,0.0,--,--,--,--,--,--,--,--,--,--,--
44,44,6,1,1,1,0.750000,0.0,--,--,--,--,--,--,--,--,--,--,--
45,45,6,1,1,1,0.750000,0.0,--,--,--,--,--,--,--,--,--,--,--
46,46,6,1,1,1,0.750000,0.0,--,--,--,--,--,--,--,--,--,--,--
47,47,6,1,1,1,0.750000,0.0,--,--,--,--,--,--,--,--,--,--,--
48,48,6,1,1,1,8,0.0,--,--,--,--,--,--,--,--,--,--,--
49,49,7,2,1,3,0.750000,0.0,--,--,--,--,--,--,--,--,--,--,--
50,50,7,2,1,3,0.750000,0.0,--,--,--,--,--,--,--,--,--,--,--
51,51,7,2,1,3,0.750000,0.0,--,--,--,--,--,--,--,--,--,--,--
52,52,7,2,1,3,0.750000,0.0,--,--,--,--,--,--,--,--,--,--,--
53,53,7,2,1,3,0.750000,0.0,--,--,--,--,--,--,--,--,--,--,--
54,54,7,2,1,1,0.750000,0.0,--,--,--,--,--,--,--,--,--,--,--
55,55,7,2,1,2,0.750000,0.0,--,--,--,--,--,--,--,--,--,--,--
56,56,7,2,1,3,10,0.0,--,--,--,--,--,--,--,--,--,--,--
57,57,8,1,1,3,0.750000,0.0,--,--,--,--,--,--,--,--,--,--,--
58,58,8,1,1,1,0.750000,0.0,--,--,--,--,--,--,--,--,--,--,--
59,59,8,1,1,1,0.750000,0.0,--,--,--,--,--,--,--,--,--,--,--
60,60,8,1,1,3,0.750000,0.0,--,--,--,--,--,--,--,--,--,--,--
61,61,8,1,1,1,0.750000,0.0,--,--,--,--,--,--,--,--,--,--,--
62,62,8,1,1,1,0.750000,0.0,--,--,--,--,--,--,--,--,--,--,--
63,63,8,1,1,1,0.750000,0.0,--,--,--,--,--,--,--,--,--,--,--
64,64,8,1,1,1,8,0.0,--,--,--,--,--,--,--,--,--,--,--
65,65,9,3,2,1,0.750000,0.0,--,--,--,--,--,--,--,--,--,--,--
66,66,9,3,2,1,0.750000,0.0,--,--,--,--,--,--,--,--,--,--,--
67,67,9,3,2,2,0.750000,0.0,--,--,--,--,--,--,--,--,--,--,--
68,68,9,3,2,3,0.750000,0.0,--,--,--,--,--,--,--,--,--,--,--
69,69,9,3,2,1,0.750000,0.0,--,--,--,--,--,--,--,--,--,--,--
70,70,9,3,2,1,0.750000,0.0,--,--,--,--,--,--,--,--,--,--,--
71,71,9,3,2,1,0.750000,0.0,--,--,--,--,--,--,--,--,--,--,--
72,72,9,3,2,1,10,0.0,--,--,--,--,--,--,--,--,--,--,--
﻿TrialNumber,Trialn,Blockn,BlockType,Partner,Feedback,ITI,ran,order,decision_onset,resp,resp_onset,rt,outcome_val,outcome_onset,outcome_offset,trialDuration,ITIonset,ITIoffset
1,1,1,5,3,1,0.750000,1.0,0.0,4.0314426,0.0,999.0,999.0,999.0,6.533315,7.5495887,3.5181458,7.549807,8.3008585
2,2,1,5,3,2,0.750000,1.0,1.0,8.319393,0.0,999.0,999.0,999.0,10.822022,11.838228,3.5188348,11.838402,12.589156
3,3,1,5,3,1,0.750000,1.0,2.0,12.606675,2.0,13.856885,1.25021,9.0,15.124031,16.136444,3.529768,16.136623,16.89204
4,4,1,5,3,1,0.750000,1.0,3.0,16.909712,3.0,18.276701,1.3669888,2.0,19.427746,20.438633,3.5289211,20.43881,21.195225
5,5,1,5,3,2,0.750000,1.0,4.0,21.212576,3.0,22.980534,1.7679585,5.0,23.72992,24.74199,3.529413,24.742165,25.498402
6,6,1,5,3,1,0.750000,1.0,5.0,25.515646,2.0,26.866274,1.3506291,6.0,28.033165,29.044634,3.5289888,29.044807,29.801474
7,7,1,5,3,1,0.750000,1.0,6.0,29.81882,3.0,30.502556,0.6837353,4.0,32.33614,33.346104,3.5272806,33.34628,34.1043
8,8,1,5,3,1,8,1.0,7.0,34.121716,3.0,34.938805,0.8170917,3.0,36.638557,37.64898,3.5272634,37.649155,45.6624
9,9,2,3,2,1,0.750000,1.0,8.0,45.724483,2.0,46.930668,1.2061847,7.0,48.242325,49.252155,3.5276728,49.25233,50.015617
10,10,2,3,2,2,0.750000,1.0,9.0,50.058548,3.0,50.782993,0.7244452,5.0,52.576332,53.5859,3.5273497,53.586075,54.352108
11,11,2,3,2,1,0.750000,1.0,10.0,54.394283,3.0,55.08618,0.6918983,2.0,56.91202,57.92232,3.5280373,57.922497,58.68839
12,12,2,3,2,1,0.750000,1.0,11.0,58.7311,2.0,59.222664,0.4915644,6.0,61.24761,62.256912,3.525812,62.257088,63.008457
13,13,2,3,2,1,0.750000,1.0,12.0,63.04957,2.0,63.525494,0.4759262,9.0,65.56754,66.57744,3.5278757,66.57762,67.32823
14,14,2,3,2,1,0.750000,1.0,13.0,67.37019,2.0,67.9454,0.5752006,9.0,69.88713,70.896095,3.5259016,70.89627,71.64781
15,15,2,3,2,1,0.750000,1.0,14.0,71.68975,3.0,72.16517,0.4754203,3.0,74.20719,75.21627,3.5265214,75.216446,75.967575
16,16,2,3,2,3,12,1.0,15.0,76.009224,3.0,76.46839,0.4591707,7.0,78.52589,79.53709,3.5278594,79.53726,91.54502
17,17,3,4,2,3,0.750000,1.0,16.0,91.605515,0.0,999.0,999.0,999.0,94.11424,95.13038,3.524864,95.130554,95.88164
18,18,3,4,2,3,0.750000,1.0,17.0,95.923706,0.0,999.0,999.0,999.0,98.433914,99.45053,3.526822,99.45071,100.20142
19,19,3,4,2,3,0.750000,1.0,18.0,100.242645,0.0,999.0,999.0,999.0,102.75355,103.770195,3.5275524,103.77037,104.520996
20,20,3,4,2,3,0.750000,1.0,19.0,104.561935,--,--,--,--,--,--,--,--,--
21,21,3,4,2,3,0.750000,0.0,--,--,--,--,--,--,--,--,--,--,--
22,22,3,4,2,3,0.750000,0.0,--,--,--,--,--,--,--,--,--,--,--
23,23,3,4,2,1,0.750000,0.0,--,--,--,--,--,--,--,--,--,--,--
24,24,3,4,2,1,12,0.0,--,--,--,--,--,--,--,--,--,--,--
25,25,4,6,3,1,0.750000,0.0,--,--,--,--,--,--,--,--,--,--,--
26,26,4,6,3,2,0.750000,0.0,--,--,--,--,--,--,--,--,--,--,--
27,27,4,6,3,3,0.750000,0.0,--,--,--,--,--,--,--,--,--,--,--
28,28,4,6,3,3,0.750000,0.0,--,--,--,--,--,--,--,--,--,--,--
29,29,4,6,3,3,0.750000,0.0,--,--,--,--,--,--,--,--,--,--,--
30,30,4,6,3,3,0.750000,0.0,--,--,--,--,--,--,--,--,--,--,--
31,31,4,6,3,3,0.750000,0.0,--,--,--,--,--,--,--,--,--,--,--
32,32,4,6,3,3,10,0.0,--,--,--,--,--,--,--,--,--,--,--
33,33,5,2,1,3,0.750000,0.0,--,--,--,--,--,--,--,--,--,--,--
34,34,5,2,1,1,0.750000,0.0,--,--,--,--,--,--,--,--,--,--,--
35,35,5,2,1,3,0.750000,0.0,--,--,--,--,--,--,--,--,--,--,--
36,36,5,2,1,1,0.750000,0.0,--,--,--,--,--,--,--,--,--,--,--
37,37,5,2,1,3,0.750000,0.0,--,--,--,--,--,--,--,--,--,--,--
38,38,5,2,1,3,0.750000,0.0,--,--,--,--,--,--,--,--,--,--,--
39,39,5,2,1,3,0.750000,0.0,--,--,--,--,--,--,--,--,--,--,--
40,40,5,2,1,3,12,0.0,--,--,--,--,--,--,--,--,--,--,--
41,41,6,1,1,1,0.750000,0.0,--,--,--,--,--,--,--,--,--,--,--
42,42,6,1,1,2,0.750000,0.0,--,--,--,--,--,--,--,--,--,--,--
43,43,6,1,1,3,0.750000,0.0,--,--,--,--,--,--,--,--,--,--,--
44,44,6,1,1,1,0.750000,0.0,--,--,--,--,--,--,--,--,--,--,--
45,45,6,1,1,1,0.750000,0.0,--,--,--,--,--,--,--,--,--,--,--
46,46,6,1,1,1,0.750000,0.0,--,--,--,--,--,--,--,--,--,--,--
47,47,6,1,1,1,0.750000,0.0,--,--,--,--,--,--,--,--,--,--,--
48,48,6,1,1,1,8,0.0,--,--,--,--,--,--,--,--,--,--,--
49,49,7,2,1,3,0.750000,0.0,--,--,--,--,--,--,--,--,--,--,--
50,50,7,2,1,3,0.750000,0.0,--,--,--,--,--,--,--,--,--,--,--
51,51,7,2,1,3,0.750000,0.0,--,--,--,--,--,--,--,--,--,--,--
52,52,7,2,1,3,0.750000,0.0,--,--,--,--,--,--,--,--,--,--,--
53,53,7,2,1,3,0.750000,0.0,--,--,--,--,--,--,--,--,--,--,--
54,54,7,2,1,1,0.750000,0.0,--,--,--,--,--,--,--,--,--,--,--
55,55,7,2,1,2,0.750000,0.0,--,--,--,--,--,--,--,--,--,--,--
56,56,7,2,1,3,10,0.0,--,--,--,--,--,--,--,--,--,--,--
57,57,8,1,1,3,0.750000,0.0,--,--,--,--,--,--,--,--,--,--,--
58,58,8,1,1,1,0.750000,0.0,--,--,--,--,--,--,--,--,--,--,--
59,59,8,1,1,1,0.750000,0.0,--,--,--,--,--,--,--,--,--,--,--
60,60,8,1,1,3,0.750000,0.0,--,--,--,--,--,--,--,--,--,--,--
61,61,8,1,1,1,0.750000,0.0,--,--,--,--,--,--,--,--,--,--,--
62,62,8,1,1,1,0.750000,0.0,--,--,--,--,--,--,--,--,--,--,--
63,63,8,1,1,1,0.750000,0.0,--,--,--,--,--,--,--,--,--,--,--
64,64,8,1,1,1,8,0.0,--,--,--,--,--,--,--,--,--,--,--
65,65,9,3,2,1,0.750000,0.0,--,--,--,--,--,--,--,--,--,--,--
66,66,9,3,2,1,0.750000,0.0,--,--,--,--,--,--,--,--,--,--,--
67,67,9,3,2,2,0.750000,0.0,--,--,--,--,--,--,--,--,--,--,--
68,68,9,3,2,3,0.750000,0.0,--,--,--,--,--,--,--,--,--,--,--
69,69,9,3,2,1,0.750000,0.0,--,--,--,--,--,--,--,--,--,--,--
70,70,9,3,2,1,0.750000,0.0,--,--,--,--,--,--,--,--,--,--,--
71,71,9,3,2,1,0.750000,0.0,--,--,--,--,--,--,--,--,--,--,--
72,72,9,3,2,1,10,0.0,--,--,--,--,--,--,--,--,--,--,--
﻿TrialNumber,Trialn,Blockn,BlockType,Partner,Feedback,ITI,ran,order,decision_onset,resp,resp_onset,rt,outcome_val,outcome_onset,outcome_offset,trialDuration,ITIonset,ITIoffset
1,1,1,5,3,1,0.750000,1.0,0.0,4.044905,3.0,5.9724154,1.9275103,2.0,6.562331,7.5812497,3.5363448,7.5817046,8.336489
2,2,1,5,3,2,0.750000,1.0,1.0,8.3658695,0.0,999.0,999.0,999.0,10.869802,11.8907995,3.5249295,11.891068,12.649486
3,3,1,5,3,1,0.750000,1.0,2.0,12.675577,2.0,13.898726,1.2231493,8.0,15.193973,16.212828,3.5372505,16.2131,16.97928
4,4,1,5,3,1,0.750000,1.0,3.0,17.010881,3.0,18.561544,1.5506634,1.0,19.529043,20.54314,3.5322597,20.543522,21.309137
5,5,1,5,3,2,0.750000,1.0,4.0,21.335392,2.0,23.358427,2.0230334,5.0,23.853186,24.873743,3.5383506,24.873993,25.63932
6,6,1,5,3,1,0.750000,1.0,5.0,25.666542,3.0,27.7884,2.121859,4.0,28.183697,29.201067,3.534526,29.201405,29.95187
7,7,1,5,3,1,0.750000,1.0,6.0,29.977884,2.0,30.535276,0.5573918,9.0,32.49561,33.51041,3.5325272,33.51073,34.264977
8,8,1,5,3,1,8,1.0,7.0,34.293293,3.0,34.814934,0.5216414,4.0,36.811634,37.824417,3.5311265,37.82474,45.838715
9,9,2,3,2,1,0.750000,1.0,8.0,45.927242,3.0,47.121353,1.1941102,1.0,48.445034,49.45708,3.5298357,49.457344,50.218292
10,10,2,3,2,2,0.750000,1.0,9.0,50.288,3.0,50.66896,0.3809609,5.0,52.805496,53.82413,3.536134,53.824493,54.58147
11,11,2,3,2,1,0.750000,1.0,10.0,54.646095,3.0,55.081608,0.4355141,4.0,57.162895,58.17562,3.5295255,58.175873,58.928078
12,12,2,3,2,1,0.750000,1.0,11.0,58.996708,3.0,59.3946,0.3978923,1.0,61.515247,62.527065,3.530358,62.527454,63.29204
13,13,2,3,2,1,0.750000,1.0,12.0,63.357708,2.0,63.724545,0.3668339,6.0,65.87549,66.88957,3.5318618,66.88984,67.65509
14,14,2,3,2,1,0.750000,1.0,13.0,67.72001,2.0,68.02135,0.3013386,9.0,70.23756,71.24835,3.528342,71.24873,72.00071
15,15,2,3,2,1,0.750000,1.0,14.0,72.06647,3.0,72.400696,0.33423,3.0,74.584,75.599594,3.5331283,75.59982,76.36363
16,16,2,3,2,3,12,1.0,15.0,76.426186,2.0,76.76402,0.3378437,2.0,78.94538,79.96495,3.5387685,79.96522,91.968
17,17,3,4,2,3,0.750000,1.0,16.0,92.04786,--,--,--,--,--,--,--,--,--
18,18,3,4,2,3,0.750000,0.0,--,--,--,--,--,--,--,--,--,--,--
19,19,3,4,2,3,0.750000,0.0,--,--,--,--,--,--,--,--,--,--,--
20,20,3,4,2,3,0.750000,0.0,--,--,--,--,--,--,--,--,--,--,--
21,21,3,4,2,3,0.750000,0.0,--,--,--,--,--,--,--,--,--,--,--
22,22,3,4,2,3,0.750000,0.0,--,--,--,--,--,--,--,--,--,--,--
23,23,3,4,2,1,0.750000,0.0,--,--,--,--,--,--,--,--,--,--,--
24,24,3,4,2,1,12,0.0,--,--,--,--,--,--,--,--,--,--,--
25,25,4,6,3,1,0.750000,0.0,--,--,--,--,--,--,--,--,--,--,--
26,26,4,6,3,2,0.750000,0.0,--,--,--,--,--,--,--,--,--,--,--
27,27,4,6,3,3,0.750000,0.0,--,--,--,--,--,--,--,--,--,--,--
28,28,4,6,3,3,0.750000,0.0,--,--,--,--,--,--,--,--,--,--,--
29,29,4,6,3,3,0.750000,0.0,--,--,--,--,--,--,--,--,--,--,--
30,30,4,6,3,3,0.750000,0.0,--,--,--,--,--,--,--,--,--,--,--
31,31,4,6,3,3,0.750000,0.0,--,--,--,--,--,--,--,--,--,--,--
32,32,4,6,3,3,10,0.0,--,--,--,--,--,--,--,--,--,--,--
33,33,5,2,1,3,0.750000,0.0,--,--,--,--,--,--,--,--,--,--,--
34,34,5,2,1,1,0.750000,0.0,--,--,--,--,--,--,--,--,--,--,--
35,35,5,2,1,3,0.750000,0.0,--,--,--,--,--,--,--,--,--,--,--
36,36,5,2,1,1,0.750000,0.0,--,--,--,--,--,--,--,--,--,--,--
37,37,5,2,1,3,0.750000,0.0,--,--,--,--,--,--,--,--,--,--,--
38,38,5,2,1,3,0.750000,0.0,--,--,--,--,--,--,--,--,--,--,--
39,39,5,2,1,3,0.750000,0.0,--,--,--,--,--,--,--,--,--,--,--
40,40,5,2,1,3,12,0.0,--,--,--,--,--,--,--,--,--,--,--
41,41,6,1,1,1,0.750000,0.0,--,--,--,--,--,--,--,--,--,--,--
42,42,6,1,1,2,0.750000,0.0,--,--,--,--,--,--,--,--,--,--,--
43,43,6,1,1,3,0.750000,0.0,--,--,--,--,--,--,--,--,--,--,--
44,44,6,1,1,1,0.750000,0.0,--,--,--,--,--,--,--,--,--,--,--
45,45,6,1,1,1,0.750000,0.0,--,--,--,--,--,--,--,--,--,--,--
46,46,6,1,1,1,0.750000,0.0,--,--,--,--,--,--,--,--,--,--,--
47,47,6,1,1,1,0.750000,0.0,--,--,--,--,--,--,--,--,--,--,--
48,48,6,1,1,1,8,0.0,--,--,--,--,--,--,--,--,--,--,--
49,49,7,2,1,3,0.750000,0.0,--,--,--,--,--,--,--,--,--,--,--
50,50,7,2,1,3,0.750000,0.0,--,--,--,--,--,--,--,--,--,--,--
51,51,7,2,1,3,0.750000,0.0,--,--,--,--,--,--,--,--,--,--,--
52,52,7,2,1,3,0.750000,0.0,--,--,--,--,--,--,--,--,--,--,--
53,53,7,2,1,3,0.750000,0.0,--,--,--,--,--,--,--,--,--,--,--
54,54,7,2,1,1,0.750000,0.0,--,--,--,--,--,--,--,--,--,--,--
55,55,7,2,1,2,0.750000,0.0,--,--,--,--,--,--,--,--,--,--,--
56,56,7,2,1,3,10,0.0,--,--,--,--,--,--,--,--,--,--,--
57,57,8,1,1,3,0.750000,0.0,--,--,--,--,--,--,--,--,--,--,--
58,58,8,1,1,1,0.750000,0.0,--,--,--,--,--,--,--,--,--,--,--
59,59,8,1,1,1,0.750000,0.0,--,--,--,--,--,--,--,--,--,--,--
60,60,8,1,1,3,0.750000,0.0,--,--,--,--,--,--,--,--,--,--,--
61,61,8,1,1,1,0.750000,0.0,--,--,--,--,--,--,--,--,--,--,--
62,62,8,1,1,1,0.750000,0.0,--,--,--,--,--,--,--,--,--,--,--
63,63,8,1,1,1,0.750000,0.0,--,--,--,--,--,--,--,--,--,--,--
64,64,8,1,1,1,8,0.0,--,--,--,--,--,--,--,--,--,--,--
65,65,9,3,2,1,0.750000,0.0,--,--,--,--,--,--,--,--,--,--,--
66,66,9,3,2,1,0.750000,0.0,--,--,--,--,--,--,--,--,--,--,--
67,67,9,3,2,2,0.750000,0.0,--,--,--,--,--,--,--,--,--,--,--
68,68,9,3,2,3,0.750000,0.0,--,--,--,--,--,--,--,--,--,--,--
69,69,9,3,2,1,0.750000,0.0,--,--,--,--,--,--,--,--,--,--,--
70,70,9,3,2,1,0.750000,0.0,--,--,--,--,--,--,--,--,--,--,--
71,71,9,3,2,1,0.750000,0.0,--,--,--,--,--,--,--,--,--,--,--
72,72,9,3,2,1,10,0.0,--,--,--,--,--,--,--,--,--,--,--
