TrialNumber,nTrial,Block,Endowment,ITI,ISI,L_Option,R_Option,ran,order,cue_Onset,endowment_onset,endowment_offset,ISI_onset,ISI_offset,decision_onset,resp,rt,resp_onset,decision_offset,trialDuration,ITIonset,ITIoffset
1,1,1,25,5,3,5,8,1.0,0.0,4.991927,5.9910617,6.007719,6.008031,9.024546,9.02474,3.0,1.5333148,10.558055,12.5415745,3.5176094,12.542506,17.547565
2,2,1,19,3,1.5,6,4,1.0,1.0,18.541824,19.540886,19.557724,19.557955,21.074425,21.074585,2.0,1.81663,22.891216,24.59147,3.5175588,24.592276,27.596756
3,3,1,17,1,3,8,1,1.0,2.0,28.591616,29.590761,29.607458,29.607689,32.624374,32.62454,2.0,2.900061,35.5246,36.14087,3.5170004,36.141674,37.145836
4,4,2,15,1,1.5,5,1,1.0,3.0,38.141716,39.140842,39.157734,39.157955,40.6743,40.67446,2.0,1.4500662,42.124527,44.190742,3.5169582,44.19155,45.196148
5,5,1,25,5,4.5,5,8,1.0,4.0,46.1917,47.190712,47.207375,47.207592,51.724167,51.724327,3.0,2.6001763,54.324505,55.24141,3.517749,55.24221,60.246548
6,6,2,17,8,4.5,1,3,1.0,5.0,61.24189,62.240677,62.257397,62.25767,66.77404,66.7742,2.0,1.3501718,68.124374,70.29067,3.5171492,70.29148,78.29587
7,7,3,25,8,3,0,11,1.0,6.0,79.29185,80.29078,80.30777,80.307976,83.324005,83.324196,3.0,2.8833013,86.2075,86.8413,3.5177846,86.84213,94.84642
8,8,2,23,1,4.5,7,10,1.0,7.0,95.84174,96.840706,96.85741,96.85763,101.373795,101.373955,2.0,1.5669643,102.94092,104.891136,3.5178535,104.891945,105.896355
9,9,2,17,3,3,5,1,1.0,8.0,106.8915,107.890434,107.90715,107.90739,110.92491,110.92507,3.0,1.2489569,112.17403,114.44266,3.5182593,114.44347,117.44791
10,10,3,17,3,1.5,0,3,1.0,9.0,118.4415,119.44049,119.4574,119.457565,120.9741,120.97429,2.0,2.9833105,123.957596,124.49096,3.5173354,124.49175,127.49614
11,11,1,19,8,1.5,4,9,1.0,10.0,128.4916,129.49065,129.50722,129.50775,131.02396,131.02412,3.0,1.7833745,132.8075,134.54115,3.5177116,134.54198,142.54662
12,12,3,21,1,1.5,0,7,1.0,11.0,143.5413,144.54042,144.55705,144.55722,146.0736,146.07378,2.0,1.5169644,147.59074,149.59105,3.517951,149.59187,150.59662
13,13,1,23,3,1.5,1,4,1.0,12.0,151.59148,152.59058,152.6078,152.60802,154.12381,154.12396,3.0,1.8164346,155.9404,157.64102,3.5177314,157.64183,160.647
14,14,3,17,3,3,0,8,1.0,13.0,161.64146,162.64041,162.6572,162.65736,165.67358,165.67378,3.0,2.0669856,167.74077,169.19096,3.517864,169.19177,172.19618
15,15,3,15,3,1.5,0,1,1.0,14.0,173.19142,174.19023,174.20705,174.20721,175.7237,175.72389,2.0,1.3835728,177.10747,179.24068,3.517444,179.24147,182.24599
16,16,2,21,1,3,1,7,1.0,15.0,183.24132,184.24052,184.2569,184.25713,187.2738,187.27397,2.0,1.0833817,188.35735,190.79189,3.5185838,190.79268,191.79709
17,17,1,21,3,1.5,1,9,1.0,16.0,192.79124,193.79039,193.80687,193.80708,195.3237,195.32385,3.0,1.4001739,196.72403,198.84033,3.517154,198.84116,201.84584
18,18,1,25,1,1.5,11,8,1.0,17.0,202.84123,203.84029,203.85735,203.85757,205.37354,205.3737,2.0,1.716789,207.09048,208.89078,3.517775,208.89162,209.8961
19,19,3,21,5,4.5,7,0,1.0,18.0,210.89105,211.8901,211.90678,211.90694,216.42368,216.42387,3.0,1.7331595,218.15703,219.94077,3.51757,219.94157,224.94592
20,20,1,23,1,3,1,4,1.0,19.0,225.94101,226.94012,226.95668,226.9569,229.97365,229.97382,3.0,1.6332153,231.60704,233.49065,3.5175927,233.4916,234.49596
21,21,1,25,1,4.5,11,5,1.0,20.0,235.49094,236.4901,236.50667,236.50688,241.0236,241.02376,2.0,1.6330963,242.65686,244.54033,3.517238,244.54112,245.54568
22,22,2,25,1,1.5,8,11,1.0,21.0,246.54079,247.54001,247.55664,247.55685,249.07365,249.0738,2.0,2.3497422,251.42355,252.59087,3.517732,252.59167,253.59607
23,23,3,17,1,3,0,8,1.0,22.0,254.59084,255.5899,255.60655,255.60675,258.6232,258.6234,3.0,2.8335438,261.45694,262.14044,3.5177097,262.14124,263.1456
24,24,2,19,5,1.5,4,1,1.0,23.0,264.141,265.14,265.15677,265.15698,266.67358,266.67374,3.0,1.6666079,268.34033,270.1908,3.5177398,270.1916,275.19598
25,25,3,25,1,1.5,8,0,1.0,24.0,276.19095,277.1899,277.20673,277.2069,278.7233,278.72348,3.0,1.9333768,280.65686,282.24036,3.517535,282.24115,283.24655
26,26,1,19,3,3,1,6,1.0,25.0,284.24094,285.23996,285.25662,285.25714,288.27335,288.2735,3.0,2.9333768,291.20688,291.79037,3.5175393,291.79117,294.7955
27,27,3,25,1,3,8,0,1.0,26.0,295.7909,296.78983,296.8068,296.80695,299.8233,299.82355,3.0,1.8999612,301.7235,303.341,3.5181258,303.3418,304.3462
28,28,2,17,1,4.5,8,1,1.0,27.0,305.3409,306.34006,306.35675,306.35696,310.8724,310.87256,3.0,1.4008908,312.27344,314.38998,3.5180974,314.39078,315.39532
29,29,3,21,5,1.5,7,0,1.0,28.0,316.39148,317.38977,317.40637,317.40656,318.92322,318.92343,999.0,999.0,999.0,321.93985,3.5333326,322.45694,327.4613
30,30,2,19,1,1.5,9,4,1.0,29.0,328.45715,329.45636,329.47318,329.47342,330.9898,330.98996,3.0,1.2331781,332.22314,334.5067,3.517411,334.5075,335.51196
31,31,3,25,1,1.5,5,0,1.0,30.0,336.50745,337.50632,337.52307,337.52322,339.03986,339.04004,3.0,1.3834523,340.4235,342.55667,3.5172772,342.55746,343.56198
32,32,2,19,3,1.5,9,1,1.0,31.0,344.55762,345.55637,345.57312,345.57333,347.0898,347.08997,3.0,1.3332633,348.42325,350.60727,3.5179632,350.60806,353.6127
33,33,3,25,1,1.5,0,8,1.0,32.0,354.60745,355.60635,355.62302,355.6232,357.13925,357.13943,2.0,2.2505484,359.38998,360.65723,3.5184512,360.65802,361.66257
34,34,2,21,1,1.5,4,1,1.0,33.0,362.6573,363.6561,363.6732,363.67346,365.18958,365.18973,3.0,1.0669336,366.25665,368.70773,3.5186872,368.70856,369.7132
35,35,1,17,1,1.5,5,8,1.0,34.0,370.70734,371.70618,371.723,371.72324,373.23947,373.23962,3.0,2.016752,375.25638,376.75702,3.5180688,376.75784,377.76257
36,36,2,15,3,1.5,1,7,1.0,35.0,378.75714,379.7564,379.77298,379.7733,381.28946,381.2896,2.0,0.9000458,382.18967,384.8061,3.51713,384.8069,387.8114
