onset	duration	trial_type	rt	resp
0.0005300892516970634	0.6612922213971615	fixation_1	999	999
0.661942757666111	3.0067698028869927	face	1.8166170185431838	3
3.668763274792582	0.6612922213971615	fixation_2	999	999
4.211541689466685	1.0000642989762127	feedback win	999	999
5.211609309073538	5.3177756066434085	ITI	999	999
10.538840180262923	0.6562436982057989	fixation_1	999	999
11.195219721179456	3.0070626195520163	face	2.0655151824466884	2
14.202332149725407	0.6562436982057989	fixation_2	999	999
14.74488476337865	1.0001744823530316	feedback loss	999	999
15.745062264613807	1.118288307916373	ITI	999	999
16.867814065888524	0.6436513704247773	fixation_1	999	999
17.511956583708525	3.006620073225349	face	2.0663794446736574	3
20.51863189972937	0.6436513704247773	fixation_2	999	999
21.061644265893847	1.0165094309486449	feedback win	999	999
22.07815762143582	1.1181944254785776	ITI	999	999
23.200877122115344	0.6439867513254285	fixation_1	999	999
23.844999716617167	3.006902022752911	face	2.0673478529788554	2
26.851953661534935	0.6439867513254285	fixation_2	999	999
27.395178847946227	1.0166851212270558	feedback win	999	999
28.411868195049465	3.216356260702014	ITI	999	999
31.632949371356517	0.6451716027222574	fixation_1	999	999
32.278258024249226	3.0064199320040643	face	1.3010418843477964	3
35.284736519213766	0.6451716027222574	fixation_2	999	999
35.828556697349995	1.0162621969357133	feedback loss	999	999
36.84483096934855	5.317493355832994	ITI	999	999
42.16703837318346	0.6610748725943267	fixation_1	999	999
42.82823550468311	3.007241026032716	face	1.299891144502908	3
45.83552724542096	0.6610748725943267	fixation_2	999	999
46.378456596285105	1.0164858847856522	feedback loss	999	999
47.394946405664086	3.2167505067773163	ITI	999	999
50.616471636574715	0.6616342435590923	fixation_1	999	999
51.278246553149074	3.0067423321306705	face	1.5497800554148853	2
54.285036279354244	0.6616342435590923	fixation_2	999	999
54.82814705558121	1.0000009057112038	feedback win	999	999
55.82816003635526	3.216902046930045	ITI	999	999
59.049859448336065	0.6615162109956145	fixation_1	999	999
59.711531727574766	3.0070402808487415	face	1.5497097191400826	3
62.71862785471603	0.6615162109956145	fixation_2	999	999
63.26159584522247	1.016511544585228	feedback loss	999	999
64.27811071043834	1.1178394225426018	ITI	999	999
65.40077074198052	0.6440030527301133	fixation_1	999	999
66.04491809010506	3.006916814483702	face	2.0665020048618317	2
69.05188290262595	0.6440030527301133	fixation_2	999	999
69.59488621214405	1.016879225615412	feedback win	999	999
70.6117687583901	1.1170959095470607	ITI	999	999
71.73368135280907	0.644345376174897	fixation_1	999	999
72.37816981691867	3.007078014779836	face	1.5500475149601698	2
75.38529975386336	0.644345376174897	fixation_2	999	999
75.9284114362672	1.0165519951842725	feedback win	999	999
76.94496675208211	1.1173959714360535	ITI	999	999
78.06718061538413	0.6443936764262617	fixation_1	999	999
78.71171798324212	3.0076727042905986	face	1.2997643579728901	3
81.7194383838214	0.6443936764262617	fixation_2	999	999
82.26144581474364	1.0003266264684498	feedback loss	999	999
83.26177545962855	3.216383731458336	ITI	999	999
86.48295232979581	0.6620526392944157	fixation_1	999	999
87.14515409432352	3.0069946977309883	face	1.2999696312472224	2
90.15219860104844	0.6620526392944157	fixation_2	999	999
90.69489098154008	1.0002288199029863	feedback loss	999	999
91.69513217825443	1.117397481109947	ITI	999	999
92.81770979892462	0.6439103772863746	fixation_1	999	999
93.46176598081365	3.0060287048108876	face	1.5501522650010884	2
96.46787498379126	0.6439103772863746	fixation_2	999	999
97.01132717868313	1.0000232439488173	feedback win	999	999
98.011363403406	5.315945653244853	ITI	999	999
103.3323935023509	0.6613833871670067	fixation_1	999	999
103.99392873141915	3.006842252332717	face	1.550611715298146	3
107.00082230195403	0.6613833871670067	fixation_2	999	999
107.54513091035187	1.0162253687158227	feedback win	999	999
108.56135959969833	1.1177802556194365	ITI	999	999
109.68417932232842	0.6436960478313267	fixation_1	999	999
110.32802570285276	3.008104986511171	face	1.5499002006836236	2
113.33618049835786	0.6436960478313267	fixation_2	999	999
113.87809133017436	1.0001729731447995	feedback win	999	999
114.8782676239498	5.315852072555572	ITI	999	999
120.19926844118163	0.6622545924037695	fixation_1	999	999
120.8616730645299	3.0074435831047595	face	1.8174369055777788	3
123.86917128646746	0.6622545924037695	fixation_2	999	999
124.41140451841056	1.0165797672234476	feedback win	999	999
125.42798730451614	3.2171181882731616	ITI	999	999
128.65026993490756	0.6448564473539591	fixation_1	999	999
129.29532863711938	3.0074269799515605	face	1.8167546726763248	2
132.30280512431636	0.6448564473539591	fixation_2	999	999
132.8446459211409	1.0003308528102934	feedback win	999	999
133.84497979283333	3.2171100373379886	ITI	999	999
137.06731072301045	0.6439668275415897	fixation_1	999	999
137.71144176926464	3.0076413098722696	face	1.5497791501693428	3
140.71913409559056	0.6439668275415897	fixation_2	999	999
141.26133321598172	1.0169824659824371	feedback win	999	999
142.27832805877551	3.2162898485548794	ITI	999	999
145.49966039322317	0.6449394621886313	fixation_1	999	999
146.14475924428552	3.006258128210902	face	1.5502796550281346	3
149.15108801051974	0.6449394621886313	fixation_2	999	999
149.69475483708084	1.0169540899805725	feedback win	999	999
150.71172130387276	11.61622742144391	ITI	999	999
162.33308298001066	0.6616686573252082	fixation_1	999	999
162.99490830907598	3.006064023822546	face	1.2991083883680403	2
166.0010429713875	0.6616686573252082	fixation_2	999	999
166.54471643874422	1.0003764354623854	feedback loss	999	999
167.54509619483724	5.3169219102710485	ITI	999	999
172.86730390042067	0.6606130073778331	fixation_1	999	999
173.52809229586273	3.006479401141405	face	1.8161457949317992	2
176.53462331695482	0.6606130073778331	fixation_2	999	999
177.07775794155896	1.000064600724727	feedback win	999	999
178.0778255611658	5.317158578429371	ITI	999	999
183.40030072582886	0.6595796965993941	fixation_1	999	999
184.0600509806536	3.007372642401606	face	1.5509250592440367	3
187.06747886585072	0.6595796965993941	fixation_2	999	999
187.61140137864277	1.0163458161987364	feedback loss	999	999
188.62775051547214	3.2172069386579096	ITI	999	999
191.850414713379	0.6606371570378542	fixation_1	999	999
192.511577129364	3.0067145596258342	face	1.5493592442944646	2
195.51834089448676	0.6606371570378542	fixation_2	999	999
196.0610332749784	1.000085128005594	feedback loss	999	999
197.06113108200952	1.1188051141798496	ITI	999	999
198.18546741409227	0.6422908292151988	fixation_1	999	999
198.82795415911824	3.0072712134569883	face	1.2999801971018314	3
201.83527457760647	0.6422908292151988	fixation_2	999	999
202.37799865519628	1.0161858233623207	feedback loss	999	999
203.3941968549043	1.118156389798969	ITI	999	999
204.51784612471238	0.6429815143346786	fixation_1	999	999
205.16097827395424	3.0066885985434055	face	1.8103392687626183	2
208.16772090783343	0.6429815143346786	fixation_2	999	999
208.71086368290707	1.0002496489323676	feedback win	999	999
209.71111665247008	5.315907315351069	ITI	999	999
215.03235564753413	0.6622455362230539	fixation_1	999	999
215.6947684213519	3.007071071770042	face	1.5501190586946905	3
218.70189292449504	0.6622455362230539	fixation_2	999	999
219.24468552693725	1.0163648342713714	feedback loss	999	999
220.26105398358777	5.317837490700185	ITI	999	999
225.5844338615425	0.6598966629244387	fixation_1	999	999
226.2445028941147	3.0073527190834284	face	1.3003816879354417	3
229.25190391298383	0.6598966629244387	fixation_2	999	999
229.7954306700267	1.0157139962539077	feedback win	999	999
230.81115704309195	3.2174197589047253	ITI	999	999
234.0341022843495	0.6604768624529243	fixation_1	999	999
234.69477838324383	3.006024780217558	face	1.3000677400268614	2
237.70087500894442	0.6604768624529243	fixation_2	999	999
238.24438516329974	1.0002677612937987	feedback loss	999	999
239.2446653014049	1.1171900941990316	ITI	999	999
240.36745362961665	0.6435894863680005	fixation_1	999	999
241.01122514531016	3.0067996880970895	face	1.5495645180344582	2
244.01807524636388	0.6435894863680005	fixation_2	999	999
244.5610945550725	1.0166413495317101	feedback win	999	999
245.57774797966704	3.217073510866612	ITI	999	999
248.80036659445614	0.6441325563937426	fixation_1	999	999
249.44468419859186	3.006952435709536	face	1.3004299881868064	3
252.45168644329533	0.6441325563937426	fixation_2	999	999
252.9947063564323	1.0163950212299824	feedback loss	999	999
254.01110500004143	1.1187042887322605	ITI	999	999
255.13541657896712	0.6422838857397437	fixation_1	999	999
255.777885211166	3.007169180549681	face	1.2998232231475413	2
258.78510570991784	0.6422838857397437	fixation_2	999	999
259.32839489355683	1.0160904312506318	feedback loss	999	999
260.3444889471866	1.1177796521224082	ITI	999	999
261.4680111282505	0.6430572848767042	fixation_1	999	999
262.1112767052837	3.0061449254862964	face	1.3001767164096236	3
265.117490156088	0.6430572848767042	fixation_2	999	999
265.66097012301907	1.0166606698185205	feedback loss	999	999
266.67764286743477	1.1180939017795026	ITI	999	999
267.8015224663541	0.6427469588816166	fixation_1	999	999
268.4444650388323	3.0062720142304897	face	1.300147132948041	2
271.45082097360864	0.6427469588816166	fixation_2	999	999
271.9942088695243	1.000131616834551	feedback win	999	999
272.9943438069895	5.317416680045426	ITI	999	999
278.3174320757389	0.6601342367939651	fixation_1	999	999
278.977743210271	3.005995800253004	face	1.3000900787301362	3
281.9837903287262	0.6601342367939651	fixation_2	999	999
282.5278305723332	1.0165722207166255	feedback loss	999	999
283.5444151693955	1.11733016371727	ITI	999	999
284.66738522518426	0.6601309161633253	fixation_1	999	999
285.32773499935865	3.006981415208429	face	1.0497006624937057	2
288.3347668275237	0.6601309161633253	fixation_2	999	999
288.87775172293186	1.0167388543486595	feedback loss	999	999
289.89449389791116	3.2164401817135513	ITI	999	999
293.1167544918135	0.6441253111697733	fixation_1	999	999
293.76110047195107	3.0066490531899035	face	1.0502639575861394	3
296.76779842888936	0.6441253111697733	fixation_2	999	999
297.3106963848695	1.0001430879347026	feedback win	999	999
298.3108427929692	5.316914363764226	ITI	999	999
303.63359115319327	0.6774001615121961	fixation_1	999	999
304.3111833059229	3.0068066311068833	face	1.2995388587005436	3
307.3180394442752	0.6774001615121961	fixation_2	999	999
307.8608048777096	1.0001168251037598	feedback loss	999	999
308.8609253251925	5.316757993306965	ITI	999	999
314.18353754049167	0.6606259876862168	fixation_1	999	999
314.84435733081773	3.0072368001565337	face	1.3008263469673693	3
317.8516427325085	0.6606259876862168	fixation_2	999	999
318.39449420012534	1.0165592399425805	feedback win	999	999
319.41105645895004	1.1174774770624936	ITI	999	999
320.53456445178017	0.6598329679109156	fixation_1	999	999
321.19461174914613	3.0077155707404017	face	1.2996146292425692	2
324.20237531745806	0.6598329679109156	fixation_2	999	999
324.7443302227184	1.0001252773217857	feedback loss	999	999
325.74445882067084	1.1181732942350209	ITI	999	999
326.86871243966743	0.6421978524886072	fixation_1	999	999
327.5111179803498	3.007493392098695	face	1.2995171244256198	2
330.51866118144244	0.6421978524886072	fixation_2	999	999
331.0606764610857	1.0000492054969072	feedback loss	999	999
332.0607289872132	5.317892431747168	ITI	999	999
337.3845453732647	0.6596639188937843	fixation_1	999	999
338.04440400050953	3.0070342430844903	face	1.2997341705486178	3
341.0514901657589	0.6596639188937843	fixation_2	999	999
341.5946610150859	1.0161489946767688	feedback loss	999	999
342.6108136321418	1.1177585208788514	ITI	999	999
343.73457851912826	0.6595528293401003	fixation_1	999	999
344.3943408485502	3.007078014779836	face	1.299779753666371	2
347.4014707854949	0.6595528293401003	fixation_2	999	999
347.9440991692245	1.0002487432211637	feedback loss	999	999
348.94435093086213	3.2165935332886875	ITI	999	999
352.166888945736	0.6604638821445405	fixation_1	999	999
352.82755417749286	3.0069901696406305	face	1.2996629285626113	3
355.8345941561274	0.6604638821445405	fixation_2	999	999
356.3774791317992	1.016826699487865	feedback win	999	999
357.3943185098469	7.41639659088105	ITI	999	999
364.81681504752487	0.6606582882814109	fixation_1	999	999
365.47768343938515	3.0078565450385213	face	1.049584441818297	3
368.4855900951661	0.6606582882814109	fixation_2	999	999
369.0272192796692	1.000243007671088	feedback loss	999	999
370.0274653057568	1.118038055486977	ITI	999	999
371.15204374026507	0.6588953505270183	fixation_1	999	999
371.8112059463747	3.0069663217291236	face	1.5503297657705843	3
374.81822268106043	0.6588953505270183	fixation_2	999	999
375.3606578656472	1.000179614406079	feedback win	999	999
376.36084140464664	1.1175130982883275	ITI	999	999
377.48445082688704	0.6429947968572378	fixation_1	999	999
378.12764908606187	3.0068419501185417	face	1.5501344543881714	3
381.1345405434258	0.6429947968572378	fixation_2	999	999
381.67749525187537	1.0168043607845902	feedback loss	999	999
382.6943029332906	1.1176857696846128	ITI	999	999
383.81818253174424	0.6424692361615598	fixation_1	999	999
384.460857947357	3.0062859002500772	face	1.3006515624001622	2
387.4672235418111	0.6424692361615598	fixation_2	999	999
388.0107164895162	1.016757268924266	feedback loss	999	999
389.02748673874885	3.217401043046266	ITI	999	999
392.25107346009463	0.6600270722992718	fixation_1	999	999
392.91134746419266	3.006603772751987	face	1.0501616229303181	2
395.91800466831774	0.6600270722992718	fixation_2	999	999
396.46040453389287	1.000621254555881	feedback loss	999	999
397.4610294108279	5.31643438572064	ITI	999	999
402.7838085619733	0.6603920361958444	fixation_1	999	999
403.4444046644494	3.0718979840166867	face	n/a	n/a
406.5163660417311	0.6603920361958444	fixation_2	999	999
407.0606390289031	1.0000196215696633	feedback loss	999	999
408.0606619711034	5.316588340792805	ITI	999	999
413.3835096475668	0.6605191244743764	fixation_1	999	999
414.0442512524314	3.007173708640039	face	2.066496269777417	3
417.05147990211844	0.6605191244743764	fixation_2	999	999
417.5938867107034	1.000218858011067	feedback loss	999	999
418.59410858759657	5.317310420796275	ITI	999	999
423.9178760703653	0.6593551030382514	fixation_1	999	999
424.57743674889207	3.007281477097422	face	1.5498434486798942	2
427.5847707516514	0.6593551030382514	fixation_2	999	999
428.12754644919187	1.016419473104179	feedback win	999	999
429.1439692429267	3.2167867315001786	ITI	999	999
432.3671257952228	0.6601263885386288	fixation_1	999	999
433.0274846255779	3.007225027307868	face	1.2998564294539392	2
436.0347645934671	0.6601263885386288	fixation_2	999	999
436.5770648410544	1.0001572761684656	feedback win	999	999
437.577225739602	1.1181443147361279	ITI	999	999
438.7017404786311	0.6420888765715063	fixation_1	999	999
439.3440376473591	3.00630944641307	face	1.0500641176477075	2
442.3504301086068	0.6420888765715063	fixation_2	999	999
442.8948443727568	1.0156753561459482	feedback loss	999	999
443.91052304953337	3.217066265642643	ITI	999	999
447.1342468210496	0.6427683923393488	fixation_1	999	999
447.77722169458866	3.006364688742906	face	1.050321011338383	3
450.7836364945397	0.6427683923393488	fixation_2	999	999
451.32762360805646	1.016231708228588	feedback win	999	999
452.34386769263074	3.2168966135941446	ITI	999	999
