TrialNumber,nTrial,Block,Endowment,ITI,ISI,L_Option,R_Option,ran,order,cue_Onset,endowment_onset,endowment_offset,ISI_onset,ISI_offset,decision_onset,resp,rt,resp_onset,decision_offset,trialDuration,ITIonset,ITIoffset
1,1,2,23,1,1.5,4,1,1.0,0.0,5.005,5.9855766,6.0196204,6.0199885,7.5394936,7.53967,999.0,999.0,999.0,10.555178,3.532752,11.072675,12.076058
2,2,2,21,3,3,9,7,1.0,1.0,13.070007,14.06871,14.085342,14.08589,17.102703,17.102844,999.0,999.0,999.0,20.103971,3.5167203,20.619785,23.622232
3,3,3,25,1,1.5,0,5,1.0,2.0,24.618986,25.617558,25.634094,25.634308,27.151344,27.151524,999.0,999.0,999.0,30.168106,3.5326052,30.684322,31.686708
4,4,1,15,3,3,7,1,1.0,3.0,32.684345,33.68372,33.700203,33.70043,36.71742,36.717556,999.0,999.0,999.0,39.73264,3.5323665,40.250122,43.25357
5,5,2,23,3,1.5,1,7,1.0,4.0,44.250225,45.248947,45.265915,45.26614,46.781933,46.782078,999.0,999.0,999.0,49.798203,3.5329952,50.31526,53.317814
6,6,3,17,5,4.5,3,0,1.0,5.0,54.315136,55.314022,55.33056,55.330715,59.847507,59.84772,999.0,999.0,999.0,62.863358,3.532967,63.380894,68.38377
7,7,2,17,1,3,3,5,1.0,6.0,69.38015,70.3793,70.39566,70.39589,73.41324,73.41337,999.0,999.0,999.0,76.42841,3.531868,76.94543,77.948715
8,8,3,19,3,3,1,0,1.0,7.0,78.9462,79.9452,79.96119,79.96144,82.978485,82.978676,999.0,999.0,999.0,85.99462,3.5319788,86.51085,89.514206
9,9,3,15,3,1.5,5,0,1.0,8.0,90.511314,91.51018,91.52707,91.52735,93.04406,93.04424,999.0,999.0,999.0,96.06032,3.532451,96.57689,99.58013
10,10,1,23,1,4.5,7,4,1.0,9.0,100.57704,101.57542,101.591934,101.592476,106.10952,106.10965,999.0,999.0,999.0,109.12458,3.5321424,109.64201,110.644745
11,11,1,19,1,1.5,9,1,1.0,10.0,111.64186,112.64157,112.657555,112.657845,114.17432,114.17445,999.0,999.0,999.0,117.19023,3.5325189,117.70717,118.71001
12,12,2,25,1,1.5,11,8,1.0,11.0,119.70756,120.706696,120.72332,120.72354,122.240074,122.24021,999.0,999.0,999.0,125.25642,3.5334237,125.773834,126.77677
13,13,1,17,5,1.5,8,5,1.0,12.0,127.773766,128.77237,128.78911,128.78938,130.30647,130.30661,999.0,999.0,999.0,133.322,3.5311637,133.83797,138.8408
14,14,1,23,1,3,10,4,1.0,13.0,139.83885,140.83792,140.85431,140.8546,143.87094,143.87108,999.0,999.0,999.0,146.88689,3.5325804,147.40385,148.40761
15,15,2,23,8,1.5,4,1,1.0,14.0,149.4041,150.40317,150.41994,150.42015,151.93687,151.93701,999.0,999.0,999.0,154.9529,3.531921,155.46912,163.47253
16,16,1,15,1,3,5,3,1.0,15.0,164.46933,165.46811,165.4848,165.48503,168.50166,168.5018,999.0,999.0,999.0,171.51816,3.5331788,172.03519,173.03784
17,17,2,15,3,1.5,1,5,1.0,16.0,174.036,175.03426,175.05121,175.05147,176.56818,176.56833,999.0,999.0,999.0,179.58385,3.5323577,180.10088,183.10333
18,18,3,17,1,3,8,0,1.0,17.0,184.10165,185.10042,185.11656,185.11679,188.13263,188.13281,999.0,999.0,999.0,191.13293,3.5162978,191.6493,192.65259
19,19,1,19,1,1.5,6,1,1.0,18.0,193.6504,194.64854,194.66582,194.66609,196.1819,196.18205,999.0,999.0,999.0,199.19879,3.532843,199.71509,200.7187
20,20,1,23,5,3,4,7,1.0,19.0,201.7155,202.71509,202.73148,202.7318,205.74857,205.74872,999.0,999.0,999.0,208.76437,3.531886,209.2808,214.28407
21,21,3,19,5,1.5,6,0,1.0,20.0,215.28107,216.27986,216.29642,216.29663,217.81235,217.81253,999.0,999.0,999.0,220.81297,3.5176213,221.33035,226.33278
22,22,3,21,1,1.5,0,9,1.0,21.0,227.3293,228.328,228.34482,228.34497,229.86143,229.86162,999.0,999.0,999.0,232.87784,3.5337818,233.3956,234.39825
23,23,3,17,1,1.5,5,0,1.0,22.0,235.39511,236.39401,236.41048,236.4107,237.92726,237.92746,999.0,999.0,999.0,240.94356,3.5327017,241.46036,242.46356
24,24,3,23,3,1.5,0,7,1.0,23.0,243.46085,244.45973,244.4763,244.47668,245.9934,245.99359,999.0,999.0,999.0,249.00952,3.5323465,249.52614,252.52927
25,25,3,23,1,1.5,0,4,1.0,24.0,253.52724,254.5258,254.54237,254.54254,256.05945,256.05963,999.0,999.0,999.0,259.07495,3.532262,259.5921,260.5952
26,26,1,25,1,1.5,8,2,1.0,25.0,261.59216,262.5912,262.60812,262.60837,264.12363,264.12375,999.0,999.0,999.0,267.14038,3.533441,267.6574,268.6601
27,27,1,19,1,1.5,1,9,1.0,26.0,269.658,270.65717,270.67322,270.67343,272.1901,272.19022,999.0,999.0,999.0,275.2057,3.5320084,275.72244,276.7248
28,28,2,19,5,3,1,6,1.0,27.0,277.72266,278.72302,278.73886,278.7391,281.75504,281.7552,999.0,999.0,999.0,284.77127,3.5332847,285.28867,290.29135
29,29,2,23,1,1.5,1,4,1.0,28.0,291.28864,292.2875,292.3044,292.30502,293.82138,293.82153,999.0,999.0,999.0,296.83737,3.532652,297.3544,298.35812
30,30,2,21,8,4.5,1,4,1.0,29.0,299.3546,300.3536,300.36984,300.37024,304.886,304.88614,999.0,999.0,999.0,307.90292,3.533298,308.41965,316.42218
31,31,3,21,1,1.5,0,7,1.0,30.0,317.41937,318.41815,318.4351,318.43524,319.95108,319.95126,999.0,999.0,999.0,322.9674,3.5331538,323.48462,324.4878
32,32,3,19,3,4.5,0,4,1.0,31.0,325.4853,326.48398,326.50043,326.50058,331.01712,331.0173,999.0,999.0,999.0,334.03265,3.5314524,334.54895,337.55188
33,33,1,17,3,1.5,5,8,1.0,32.0,338.5497,339.54968,339.56638,339.56665,341.08328,341.08344,999.0,999.0,999.0,344.09793,3.530339,344.61398,347.617
34,34,2,15,3,4.5,3,7,1.0,33.0,348.61572,349.6146,349.63165,349.63202,354.1478,354.14795,999.0,999.0,999.0,357.16357,3.531955,357.6801,360.6831
35,35,2,23,8,3,4,1,1.0,34.0,361.68085,362.67984,362.69724,362.69754,365.71323,365.71338,999.0,999.0,999.0,368.72937,3.5320256,369.2456,377.2489
36,36,1,21,1,4.5,1,9,1.0,35.0,378.24585,379.24463,379.26117,379.26147,383.7774,383.77753,999.0,999.0,999.0,386.79373,3.532678,387.31042,388.31384
